"","Consent_Form.started","Consent_Form.stopped","key_resp_consent.keys","key_resp_consent.rt","key_resp_consent.duration","participant","session","date","expName","psychopyVersion","OS","frameRate","PROLIFIC_PID","STUDY_ID","SESSION_ID","Instr_Intro.started","Instr_Intro.stopped","key_resp_intro.keys","key_resp_intro.rt","key_resp_intro.duration","Instr_Intro2.started","Instr_Intro2.stopped","key_resp_intro_2.keys","key_resp_intro_2.rt","key_resp_intro_2.duration","Lead_In.started","Lead_In.stopped","trial.started","trial.stopped","exp_DonateScale.response","exp_DonateScale.rt","exp_DonateScale_flip.response","exp_DonateScale_flip.rt","Between_Trial.started","Between_Trial.stopped","trials.thisRepN","trials.thisTrialN","trials.thisN","trials.thisIndex","trials.ran","trials.order","order","img_stim","mes_stim","img_aff","mes_aff","scale_flip","Lead_Out.started","Lead_Out.stopped","End_Exp.started","End_Exp.stopped","X"
"1",NA,NA,"",NA,NA,"pilot1",1,"2025-11-30_21h50.02.918","genevsky2025_cwu","2023.2.3","Win32",119.047619,"5de9d78ebe656d10e1a26af6","692d1bf328f7b93b96e2a24d","692d1e6226754705b73adb22",NA,NA,"",NA,NA,NA,NA,"",NA,NA,NA,NA,40.5581,52.556,NA,NA,NA,NA,52.5561,54.5554,0,0,0,34,1,35,35,"stimuli/img/neg2.jpg","Famine conditions have affected many in Africa. Sustainable farming practices have the potential to solve much of the world's hunger problems and provide enough food to adequately feed people in current famine regions. Establishing these farming practices is an effective way to avert a famine crisis. This program sends volunteers to Zimbabwe to teach people how to begin and maintain local sustainable farms in their communities.","n","p",1,NA,NA,NA,NA,NA
"2",NA,NA,"",NA,NA,"pilot1",1,"2025-11-30_21h50.02.918","genevsky2025_cwu","2023.2.3","Win32",119.047619,"5de9d78ebe656d10e1a26af6","692d1bf328f7b93b96e2a24d","692d1e6226754705b73adb22",NA,NA,"",NA,NA,NA,NA,"",NA,NA,NA,NA,54.5557,66.5523,2,11.7696,NA,NA,66.5523,68.5519,0,1,1,21,1,22,22,"stimuli/img/pos3.jpg","Famine conditions in Africa have steadily deteriorated. Families are living on less than a cup of rice each day. Many have already lost family members to starvation since the famine began and are in grave danger themselves. This program will send food to the starving in rural communities in an attempt to avoid further famine related deaths.","p","n",0,NA,NA,NA,NA,NA
"3",NA,NA,"",NA,NA,"pilot1",1,"2025-11-30_21h50.02.918","genevsky2025_cwu","2023.2.3","Win32",119.047619,"5de9d78ebe656d10e1a26af6","692d1bf328f7b93b96e2a24d","692d1e6226754705b73adb22",NA,NA,"",NA,NA,NA,NA,"",NA,NA,NA,NA,68.5521,80.5489,2,11.6454,NA,NA,80.5491,82.5485,0,2,2,3,1,4,4,"stimuli/img/pos1.jpg","Famine conditions in Africa have steadily deteriorated. Families are living on less than a cup of rice each day. Many have already lost family members to starvation since the famine began and are in grave danger themselves. This program will send food to the starving in rural communities in an attempt to avoid further famine related deaths.","p","n",0,NA,NA,NA,NA,NA
"4",NA,NA,"",NA,NA,"pilot1",1,"2025-11-30_21h50.02.918","genevsky2025_cwu","2023.2.3","Win32",119.047619,"5de9d78ebe656d10e1a26af6","692d1bf328f7b93b96e2a24d","692d1e6226754705b73adb22",NA,NA,"",NA,NA,NA,NA,"",NA,NA,NA,NA,82.5487,94.5486,NA,NA,4,11.925,94.5486,96.545,0,3,3,15,1,16,16,"stimuli/img/pos2.jpg","Famine conditions in Africa have steadily deteriorated. Families are living on less than a cup of rice each day. Many have already lost family members to starvation since the famine began and are in grave danger themselves. This program will send food to the starving in rural communities in an attempt to avoid further famine related deaths.","p","n",1,NA,NA,NA,NA,NA
"5",NA,NA,"",NA,NA,"pilot1",1,"2025-11-30_21h50.02.918","genevsky2025_cwu","2023.2.3","Win32",119.047619,"5de9d78ebe656d10e1a26af6","692d1bf328f7b93b96e2a24d","692d1e6226754705b73adb22",NA,NA,"",NA,NA,NA,NA,"",NA,NA,NA,NA,96.5452,108.5421,2,11.6334,NA,NA,108.5421,110.5416,0,4,4,47,1,48,48,"stimuli/img/neg3.jpg","Famine conditions in Africa have steadily deteriorated. Families are living on less than a cup of rice each day. Many have already lost family members to starvation since the famine began and are in grave danger themselves. This program will send food to the starving in rural communities in an attempt to avoid further famine related deaths.","n","n",0,NA,NA,NA,NA,NA
"6",NA,NA,"",NA,NA,"pilot1",1,"2025-11-30_21h50.02.918","genevsky2025_cwu","2023.2.3","Win32",119.047619,"5de9d78ebe656d10e1a26af6","692d1bf328f7b93b96e2a24d","692d1e6226754705b73adb22",NA,NA,"",NA,NA,NA,NA,"",NA,NA,NA,NA,110.5419,122.5387,2,11.3836,NA,NA,122.5387,124.5383,0,5,5,9,1,10,10,"stimuli/img/pos2.jpg","Famine conditions in Africa have steadily deteriorated. Families are living on less than a cup of rice each day. Many have already lost family members to starvation since the famine began and are in grave danger themselves. This program will send food to the starving in rural communities in an attempt to avoid further famine related deaths.","p","n",0,NA,NA,NA,NA,NA
"7",NA,NA,"",NA,NA,"pilot1",1,"2025-11-30_21h50.02.918","genevsky2025_cwu","2023.2.3","Win32",119.047619,"5de9d78ebe656d10e1a26af6","692d1bf328f7b93b96e2a24d","692d1e6226754705b73adb22",NA,NA,"",NA,NA,NA,NA,"",NA,NA,NA,NA,124.5384,136.5391,2,11.4169,NA,NA,136.5392,138.5347,0,6,6,20,1,21,21,"stimuli/img/pos3.jpg","Famine conditions have affected many in Africa. Sustainable farming practices have the potential to solve much of the world's hunger problems and provide enough food to adequately feed people in current famine regions. Establishing these farming practices is an effective way to avert a famine crisis. This program sends volunteers to Zimbabwe to teach people how to begin and maintain local sustainable farms in their communities.","p","p",0,NA,NA,NA,NA,NA
"8",NA,NA,"",NA,NA,"pilot1",1,"2025-11-30_21h50.02.918","genevsky2025_cwu","2023.2.3","Win32",119.047619,"5de9d78ebe656d10e1a26af6","692d1bf328f7b93b96e2a24d","692d1e6226754705b73adb22",NA,NA,"",NA,NA,NA,NA,"",NA,NA,NA,NA,138.5351,150.5318,NA,NA,4,11.9121,150.5318,152.5314,0,7,7,45,1,46,46,"stimuli/img/neg3.jpg","Famine conditions in Africa have steadily deteriorated. Families are living on less than a cup of rice each day. Many have already lost family members to starvation since the famine began and are in grave danger themselves. This program will send food to the starving in rural communities in an attempt to avoid further famine related deaths.","n","n",1,NA,NA,NA,NA,NA
"9",NA,NA,"",NA,NA,"pilot1",1,"2025-11-30_21h50.02.918","genevsky2025_cwu","2023.2.3","Win32",119.047619,"5de9d78ebe656d10e1a26af6","692d1bf328f7b93b96e2a24d","692d1e6226754705b73adb22",NA,NA,"",NA,NA,NA,NA,"",NA,NA,NA,NA,152.5316,164.5285,NA,NA,4,11.9667,164.5285,166.5279,0,8,8,22,1,23,23,"stimuli/img/pos3.jpg","Famine conditions have affected many in Africa. Sustainable farming practices have the potential to solve much of the world's hunger problems and provide enough food to adequately feed people in current famine regions. Establishing these farming practices is an effective way to avert a famine crisis. This program sends volunteers to Zimbabwe to teach people how to begin and maintain local sustainable farms in their communities.","p","p",1,NA,NA,NA,NA,NA
"10",NA,NA,"",NA,NA,"pilot1",1,"2025-11-30_21h50.02.918","genevsky2025_cwu","2023.2.3","Win32",119.047619,"5de9d78ebe656d10e1a26af6","692d1bf328f7b93b96e2a24d","692d1e6226754705b73adb22",NA,NA,"",NA,NA,NA,NA,"",NA,NA,NA,NA,166.5281,178.525,2,11.6677,NA,NA,178.525,180.5286,0,9,9,28,1,29,29,"stimuli/img/neg1.jpg","Famine conditions have affected many in Africa. Sustainable farming practices have the potential to solve much of the world's hunger problems and provide enough food to adequately feed people in current famine regions. Establishing these farming practices is an effective way to avert a famine crisis. This program sends volunteers to Zimbabwe to teach people how to begin and maintain local sustainable farms in their communities.","n","p",0,NA,NA,NA,NA,NA
"11",NA,NA,"",NA,NA,"pilot1",1,"2025-11-30_21h50.02.918","genevsky2025_cwu","2023.2.3","Win32",119.047619,"5de9d78ebe656d10e1a26af6","692d1bf328f7b93b96e2a24d","692d1e6226754705b73adb22",NA,NA,"",NA,NA,NA,NA,"",NA,NA,NA,NA,180.5288,192.5299,NA,NA,4,11.8218,192.5299,194.5253,0,10,10,12,1,13,13,"stimuli/img/pos2.jpg","Famine conditions have affected many in Africa. Sustainable farming practices have the potential to solve much of the world's hunger problems and provide enough food to adequately feed people in current famine regions. Establishing these farming practices is an effective way to avert a famine crisis. This program sends volunteers to Zimbabwe to teach people how to begin and maintain local sustainable farms in their communities.","p","p",1,NA,NA,NA,NA,NA
"12",NA,NA,"",NA,NA,"pilot1",1,"2025-11-30_21h50.02.918","genevsky2025_cwu","2023.2.3","Win32",119.047619,"5de9d78ebe656d10e1a26af6","692d1bf328f7b93b96e2a24d","692d1e6226754705b73adb22",NA,NA,"",NA,NA,NA,NA,"",NA,NA,NA,NA,194.5256,206.5222,2,11.5992,NA,NA,206.5222,208.5177,0,11,11,10,1,11,11,"stimuli/img/pos2.jpg","Famine conditions have affected many in Africa. Sustainable farming practices have the potential to solve much of the world's hunger problems and provide enough food to adequately feed people in current famine regions. Establishing these farming practices is an effective way to avert a famine crisis. This program sends volunteers to Zimbabwe to teach people how to begin and maintain local sustainable farms in their communities.","p","p",0,NA,NA,NA,NA,NA
"13",NA,NA,"",NA,NA,"pilot1",1,"2025-11-30_21h50.02.918","genevsky2025_cwu","2023.2.3","Win32",119.047619,"5de9d78ebe656d10e1a26af6","692d1bf328f7b93b96e2a24d","692d1e6226754705b73adb22",NA,NA,"",NA,NA,NA,NA,"",NA,NA,NA,NA,208.5179,220.5146,2,11.2438,NA,NA,220.5147,222.5141,0,12,12,23,1,24,24,"stimuli/img/pos3.jpg","Famine conditions in Africa have steadily deteriorated. Families are living on less than a cup of rice each day. Many have already lost family members to starvation since the famine began and are in grave danger themselves. This program will send food to the starving in rural communities in an attempt to avoid further famine related deaths.","p","n",0,NA,NA,NA,NA,NA
"14",NA,NA,"",NA,NA,"pilot1",1,"2025-11-30_21h50.02.918","genevsky2025_cwu","2023.2.3","Win32",119.047619,"5de9d78ebe656d10e1a26af6","692d1bf328f7b93b96e2a24d","692d1e6226754705b73adb22",NA,NA,"",NA,NA,NA,NA,"",NA,NA,NA,NA,222.5143,234.5112,2,11.4332,NA,NA,234.5112,236.5106,0,13,13,16,1,17,17,"stimuli/img/pos3.jpg","Famine conditions have affected many in Africa. Sustainable farming practices have the potential to solve much of the world's hunger problems and provide enough food to adequately feed people in current famine regions. Establishing these farming practices is an effective way to avert a famine crisis. This program sends volunteers to Zimbabwe to teach people how to begin and maintain local sustainable farms in their communities.","p","p",0,NA,NA,NA,NA,NA
"15",NA,NA,"",NA,NA,"pilot1",1,"2025-11-30_21h50.02.918","genevsky2025_cwu","2023.2.3","Win32",119.047619,"5de9d78ebe656d10e1a26af6","692d1bf328f7b93b96e2a24d","692d1e6226754705b73adb22",NA,NA,"",NA,NA,NA,NA,"",NA,NA,NA,NA,236.5109,248.5079,NA,NA,NA,NA,248.508,250.5073,0,14,14,42,1,43,43,"stimuli/img/neg3.jpg","Famine conditions have affected many in Africa. Sustainable farming practices have the potential to solve much of the world's hunger problems and provide enough food to adequately feed people in current famine regions. Establishing these farming practices is an effective way to avert a famine crisis. This program sends volunteers to Zimbabwe to teach people how to begin and maintain local sustainable farms in their communities.","n","p",1,NA,NA,NA,NA,NA
"16",NA,NA,"",NA,NA,"pilot1",1,"2025-11-30_21h50.02.918","genevsky2025_cwu","2023.2.3","Win32",119.047619,"5de9d78ebe656d10e1a26af6","692d1bf328f7b93b96e2a24d","692d1e6226754705b73adb22",NA,NA,"",NA,NA,NA,NA,"",NA,NA,NA,NA,250.5075,262.5045,NA,NA,4,11.5242,262.5045,264.5039,0,15,15,39,1,40,40,"stimuli/img/neg2.jpg","Famine conditions in Africa have steadily deteriorated. Families are living on less than a cup of rice each day. Many have already lost family members to starvation since the famine began and are in grave danger themselves. This program will send food to the starving in rural communities in an attempt to avoid further famine related deaths.","n","n",1,NA,NA,NA,NA,NA
"17",NA,NA,"",NA,NA,"pilot1",1,"2025-11-30_21h50.02.918","genevsky2025_cwu","2023.2.3","Win32",119.047619,"5de9d78ebe656d10e1a26af6","692d1bf328f7b93b96e2a24d","692d1e6226754705b73adb22",NA,NA,"",NA,NA,NA,NA,"",NA,NA,NA,NA,264.504,276.5009,NA,NA,4,11.0988,276.5009,278.5006,0,16,16,14,1,15,15,"stimuli/img/pos2.jpg","Famine conditions have affected many in Africa. Sustainable farming practices have the potential to solve much of the world's hunger problems and provide enough food to adequately feed people in current famine regions. Establishing these farming practices is an effective way to avert a famine crisis. This program sends volunteers to Zimbabwe to teach people how to begin and maintain local sustainable farms in their communities.","p","p",1,NA,NA,NA,NA,NA
"18",NA,NA,"",NA,NA,"pilot1",1,"2025-11-30_21h50.02.918","genevsky2025_cwu","2023.2.3","Win32",119.047619,"5de9d78ebe656d10e1a26af6","692d1bf328f7b93b96e2a24d","692d1e6226754705b73adb22",NA,NA,"",NA,NA,NA,NA,"",NA,NA,NA,NA,278.5009,290.4975,NA,NA,4,11.4263,290.4975,292.4971,0,17,17,18,1,19,19,"stimuli/img/pos3.jpg","Famine conditions have affected many in Africa. Sustainable farming practices have the potential to solve much of the world's hunger problems and provide enough food to adequately feed people in current famine regions. Establishing these farming practices is an effective way to avert a famine crisis. This program sends volunteers to Zimbabwe to teach people how to begin and maintain local sustainable farms in their communities.","p","p",1,NA,NA,NA,NA,NA
"19",NA,NA,"",NA,NA,"pilot1",1,"2025-11-30_21h50.02.918","genevsky2025_cwu","2023.2.3","Win32",119.047619,"5de9d78ebe656d10e1a26af6","692d1bf328f7b93b96e2a24d","692d1e6226754705b73adb22",NA,NA,"",NA,NA,NA,NA,"",NA,NA,NA,NA,292.4973,304.4942,NA,NA,4,11.5257,304.4944,306.4936,0,18,18,36,1,37,37,"stimuli/img/neg2.jpg","Famine conditions have affected many in Africa. Sustainable farming practices have the potential to solve much of the world's hunger problems and provide enough food to adequately feed people in current famine regions. Establishing these farming practices is an effective way to avert a famine crisis. This program sends volunteers to Zimbabwe to teach people how to begin and maintain local sustainable farms in their communities.","n","p",1,NA,NA,NA,NA,NA
"20",NA,NA,"",NA,NA,"pilot1",1,"2025-11-30_21h50.02.918","genevsky2025_cwu","2023.2.3","Win32",119.047619,"5de9d78ebe656d10e1a26af6","692d1bf328f7b93b96e2a24d","692d1e6226754705b73adb22",NA,NA,"",NA,NA,NA,NA,"",NA,NA,NA,NA,306.4938,318.4907,2,11.5349,NA,NA,318.4907,320.4938,0,19,19,8,1,9,9,"stimuli/img/pos2.jpg","Famine conditions have affected many in Africa. Sustainable farming practices have the potential to solve much of the world's hunger problems and provide enough food to adequately feed people in current famine regions. Establishing these farming practices is an effective way to avert a famine crisis. This program sends volunteers to Zimbabwe to teach people how to begin and maintain local sustainable farms in their communities.","p","p",0,NA,NA,NA,NA,NA
"21",NA,NA,"",NA,NA,"pilot1",1,"2025-11-30_21h50.02.918","genevsky2025_cwu","2023.2.3","Win32",119.047619,"5de9d78ebe656d10e1a26af6","692d1bf328f7b93b96e2a24d","692d1e6226754705b73adb22",NA,NA,"",NA,NA,NA,NA,"",NA,NA,NA,NA,320.494,332.4909,2,11.4825,NA,NA,332.4909,334.4868,0,20,20,26,1,27,27,"stimuli/img/neg1.jpg","Famine conditions have affected many in Africa. Sustainable farming practices have the potential to solve much of the world's hunger problems and provide enough food to adequately feed people in current famine regions. Establishing these farming practices is an effective way to avert a famine crisis. This program sends volunteers to Zimbabwe to teach people how to begin and maintain local sustainable farms in their communities.","n","p",0,NA,NA,NA,NA,NA
"22",NA,NA,"",NA,NA,"pilot1",1,"2025-11-30_21h50.02.918","genevsky2025_cwu","2023.2.3","Win32",119.047619,"5de9d78ebe656d10e1a26af6","692d1bf328f7b93b96e2a24d","692d1e6226754705b73adb22",NA,NA,"",NA,NA,NA,NA,"",NA,NA,NA,NA,334.4872,346.4875,NA,NA,NA,NA,346.4875,348.4834,0,21,21,44,1,45,45,"stimuli/img/neg3.jpg","Famine conditions have affected many in Africa. Sustainable farming practices have the potential to solve much of the world's hunger problems and provide enough food to adequately feed people in current famine regions. Establishing these farming practices is an effective way to avert a famine crisis. This program sends volunteers to Zimbabwe to teach people how to begin and maintain local sustainable farms in their communities.","n","p",1,NA,NA,NA,NA,NA
"23",NA,NA,"",NA,NA,"pilot1",1,"2025-11-30_21h50.02.918","genevsky2025_cwu","2023.2.3","Win32",119.047619,"5de9d78ebe656d10e1a26af6","692d1bf328f7b93b96e2a24d","692d1e6226754705b73adb22",NA,NA,"",NA,NA,NA,NA,"",NA,NA,NA,NA,348.4836,360.4803,NA,NA,4,11.6695,360.4803,362.4798,0,22,22,7,1,8,8,"stimuli/img/pos1.jpg","Famine conditions in Africa have steadily deteriorated. Families are living on less than a cup of rice each day. Many have already lost family members to starvation since the famine began and are in grave danger themselves. This program will send food to the starving in rural communities in an attempt to avoid further famine related deaths.","p","n",1,NA,NA,NA,NA,NA
"24",NA,NA,"",NA,NA,"pilot1",1,"2025-11-30_21h50.02.918","genevsky2025_cwu","2023.2.3","Win32",119.047619,"5de9d78ebe656d10e1a26af6","692d1bf328f7b93b96e2a24d","692d1e6226754705b73adb22",NA,NA,"",NA,NA,NA,NA,"",NA,NA,NA,NA,362.4801,374.4804,2,11.6127,NA,NA,374.4805,376.4766,0,23,23,37,1,38,38,"stimuli/img/neg2.jpg","Famine conditions in Africa have steadily deteriorated. Families are living on less than a cup of rice each day. Many have already lost family members to starvation since the famine began and are in grave danger themselves. This program will send food to the starving in rural communities in an attempt to avoid further famine related deaths.","n","n",0,NA,NA,NA,NA,NA
"25",NA,NA,"",NA,NA,"pilot1",1,"2025-11-30_21h50.02.918","genevsky2025_cwu","2023.2.3","Win32",119.047619,"5de9d78ebe656d10e1a26af6","692d1bf328f7b93b96e2a24d","692d1e6226754705b73adb22",NA,NA,"",NA,NA,NA,NA,"",NA,NA,NA,NA,376.4767,388.4735,NA,NA,4,11.625,388.4735,390.4684,0,24,24,17,1,18,18,"stimuli/img/pos3.jpg","Famine conditions in Africa have steadily deteriorated. Families are living on less than a cup of rice each day. Many have already lost family members to starvation since the famine began and are in grave danger themselves. This program will send food to the starving in rural communities in an attempt to avoid further famine related deaths.","p","n",1,NA,NA,NA,NA,NA
"26",NA,NA,"",NA,NA,"pilot1",1,"2025-11-30_21h50.02.918","genevsky2025_cwu","2023.2.3","Win32",119.047619,"5de9d78ebe656d10e1a26af6","692d1bf328f7b93b96e2a24d","692d1e6226754705b73adb22",NA,NA,"",NA,NA,NA,NA,"",NA,NA,NA,NA,390.4687,402.4702,2,11.8552,NA,NA,402.4703,404.4696,0,25,25,25,1,26,26,"stimuli/img/neg1.jpg","Famine conditions in Africa have steadily deteriorated. Families are living on less than a cup of rice each day. Many have already lost family members to starvation since the famine began and are in grave danger themselves. This program will send food to the starving in rural communities in an attempt to avoid further famine related deaths.","n","n",0,NA,NA,NA,NA,NA
"27",NA,NA,"",NA,NA,"pilot1",1,"2025-11-30_21h50.02.918","genevsky2025_cwu","2023.2.3","Win32",119.047619,"5de9d78ebe656d10e1a26af6","692d1bf328f7b93b96e2a24d","692d1e6226754705b73adb22",NA,NA,"",NA,NA,NA,NA,"",NA,NA,NA,NA,404.4698,416.4667,NA,NA,NA,NA,416.4667,418.466,0,26,26,1,1,2,2,"stimuli/img/pos1.jpg","Famine conditions in Africa have steadily deteriorated. Families are living on less than a cup of rice each day. Many have already lost family members to starvation since the famine began and are in grave danger themselves. This program will send food to the starving in rural communities in an attempt to avoid further famine related deaths.","p","n",0,NA,NA,NA,NA,NA
"28",NA,NA,"",NA,NA,"pilot1",1,"2025-11-30_21h50.02.918","genevsky2025_cwu","2023.2.3","Win32",119.047619,"5de9d78ebe656d10e1a26af6","692d1bf328f7b93b96e2a24d","692d1e6226754705b73adb22",NA,NA,"",NA,NA,NA,NA,"",NA,NA,NA,NA,418.4663,430.4632,2,11.4849,NA,NA,430.4633,432.4626,0,27,27,41,1,42,42,"stimuli/img/neg3.jpg","Famine conditions in Africa have steadily deteriorated. Families are living on less than a cup of rice each day. Many have already lost family members to starvation since the famine began and are in grave danger themselves. This program will send food to the starving in rural communities in an attempt to avoid further famine related deaths.","n","n",0,NA,NA,NA,NA,NA
"29",NA,NA,"",NA,NA,"pilot1",1,"2025-11-30_21h50.02.918","genevsky2025_cwu","2023.2.3","Win32",119.047619,"5de9d78ebe656d10e1a26af6","692d1bf328f7b93b96e2a24d","692d1e6226754705b73adb22",NA,NA,"",NA,NA,NA,NA,"",NA,NA,NA,NA,432.463,444.4597,NA,NA,NA,NA,444.4598,446.4593,0,28,28,32,1,33,33,"stimuli/img/neg2.jpg","Famine conditions have affected many in Africa. Sustainable farming practices have the potential to solve much of the world's hunger problems and provide enough food to adequately feed people in current famine regions. Establishing these farming practices is an effective way to avert a famine crisis. This program sends volunteers to Zimbabwe to teach people how to begin and maintain local sustainable farms in their communities.","n","p",1,NA,NA,NA,NA,NA
"30",NA,NA,"",NA,NA,"pilot1",1,"2025-11-30_21h50.02.918","genevsky2025_cwu","2023.2.3","Win32",119.047619,"5de9d78ebe656d10e1a26af6","692d1bf328f7b93b96e2a24d","692d1e6226754705b73adb22",NA,NA,"",NA,NA,NA,NA,"",NA,NA,NA,NA,446.4596,458.4563,NA,NA,NA,NA,458.4563,460.4559,0,29,29,35,1,36,36,"stimuli/img/neg2.jpg","Famine conditions in Africa have steadily deteriorated. Families are living on less than a cup of rice each day. Many have already lost family members to starvation since the famine began and are in grave danger themselves. This program will send food to the starving in rural communities in an attempt to avoid further famine related deaths.","n","n",0,NA,NA,NA,NA,NA
"31",NA,NA,"",NA,NA,"pilot1",1,"2025-11-30_21h50.02.918","genevsky2025_cwu","2023.2.3","Win32",119.047619,"5de9d78ebe656d10e1a26af6","692d1bf328f7b93b96e2a24d","692d1e6226754705b73adb22",NA,NA,"",NA,NA,NA,NA,"",NA,NA,NA,NA,460.4561,472.4529,NA,NA,NA,NA,472.453,474.4525,0,30,30,4,1,5,5,"stimuli/img/pos1.jpg","Famine conditions have affected many in Africa. Sustainable farming practices have the potential to solve much of the world's hunger problems and provide enough food to adequately feed people in current famine regions. Establishing these farming practices is an effective way to avert a famine crisis. This program sends volunteers to Zimbabwe to teach people how to begin and maintain local sustainable farms in their communities.","p","p",1,NA,NA,NA,NA,NA
"32",NA,NA,"",NA,NA,"pilot1",1,"2025-11-30_21h50.02.918","genevsky2025_cwu","2023.2.3","Win32",119.047619,"5de9d78ebe656d10e1a26af6","692d1bf328f7b93b96e2a24d","692d1e6226754705b73adb22",NA,NA,"",NA,NA,NA,NA,"",NA,NA,NA,NA,474.4528,486.4495,NA,NA,4,11.3504,486.4495,488.4491,0,31,31,19,1,20,20,"stimuli/img/pos3.jpg","Famine conditions in Africa have steadily deteriorated. Families are living on less than a cup of rice each day. Many have already lost family members to starvation since the famine began and are in grave danger themselves. This program will send food to the starving in rural communities in an attempt to avoid further famine related deaths.","p","n",1,NA,NA,NA,NA,NA
"33",NA,NA,"",NA,NA,"pilot1",1,"2025-11-30_21h50.02.918","genevsky2025_cwu","2023.2.3","Win32",119.047619,"5de9d78ebe656d10e1a26af6","692d1bf328f7b93b96e2a24d","692d1e6226754705b73adb22",NA,NA,"",NA,NA,NA,NA,"",NA,NA,NA,NA,488.4496,500.4461,NA,NA,4,11.5294,500.4461,502.4455,0,32,32,27,1,28,28,"stimuli/img/neg1.jpg","Famine conditions in Africa have steadily deteriorated. Families are living on less than a cup of rice each day. Many have already lost family members to starvation since the famine began and are in grave danger themselves. This program will send food to the starving in rural communities in an attempt to avoid further famine related deaths.","n","n",1,NA,NA,NA,NA,NA
"34",NA,NA,"",NA,NA,"pilot1",1,"2025-11-30_21h50.02.918","genevsky2025_cwu","2023.2.3","Win32",119.047619,"5de9d78ebe656d10e1a26af6","692d1bf328f7b93b96e2a24d","692d1e6226754705b73adb22",NA,NA,"",NA,NA,NA,NA,"",NA,NA,NA,NA,502.4458,514.4427,NA,NA,NA,NA,514.4427,516.4421,0,33,33,13,1,14,14,"stimuli/img/pos2.jpg","Famine conditions in Africa have steadily deteriorated. Families are living on less than a cup of rice each day. Many have already lost family members to starvation since the famine began and are in grave danger themselves. This program will send food to the starving in rural communities in an attempt to avoid further famine related deaths.","p","n",0,NA,NA,NA,NA,NA
"35",NA,NA,"",NA,NA,"pilot1",1,"2025-11-30_21h50.02.918","genevsky2025_cwu","2023.2.3","Win32",119.047619,"5de9d78ebe656d10e1a26af6","692d1bf328f7b93b96e2a24d","692d1e6226754705b73adb22",NA,NA,"",NA,NA,NA,NA,"",NA,NA,NA,NA,516.4424,528.4392,NA,NA,4,11.6361,528.4392,530.4387,0,34,34,11,1,12,12,"stimuli/img/pos2.jpg","Famine conditions in Africa have steadily deteriorated. Families are living on less than a cup of rice each day. Many have already lost family members to starvation since the famine began and are in grave danger themselves. This program will send food to the starving in rural communities in an attempt to avoid further famine related deaths.","p","n",1,NA,NA,NA,NA,NA
"36",NA,NA,"",NA,NA,"pilot1",1,"2025-11-30_21h50.02.918","genevsky2025_cwu","2023.2.3","Win32",119.047619,"5de9d78ebe656d10e1a26af6","692d1bf328f7b93b96e2a24d","692d1e6226754705b73adb22",NA,NA,"",NA,NA,NA,NA,"",NA,NA,NA,NA,530.439,542.4358,2,11.7529,NA,NA,542.4358,544.4352,0,35,35,33,1,34,34,"stimuli/img/neg2.jpg","Famine conditions in Africa have steadily deteriorated. Families are living on less than a cup of rice each day. Many have already lost family members to starvation since the famine began and are in grave danger themselves. This program will send food to the starving in rural communities in an attempt to avoid further famine related deaths.","n","n",0,NA,NA,NA,NA,NA
"37",NA,NA,"",NA,NA,"pilot1",1,"2025-11-30_21h50.02.918","genevsky2025_cwu","2023.2.3","Win32",119.047619,"5de9d78ebe656d10e1a26af6","692d1bf328f7b93b96e2a24d","692d1e6226754705b73adb22",NA,NA,"",NA,NA,NA,NA,"",NA,NA,NA,NA,544.4353,556.4323,NA,NA,NA,NA,556.4324,558.4319,0,36,36,38,1,39,39,"stimuli/img/neg2.jpg","Famine conditions have affected many in Africa. Sustainable farming practices have the potential to solve much of the world's hunger problems and provide enough food to adequately feed people in current famine regions. Establishing these farming practices is an effective way to avert a famine crisis. This program sends volunteers to Zimbabwe to teach people how to begin and maintain local sustainable farms in their communities.","n","p",1,NA,NA,NA,NA,NA
"38",NA,NA,"",NA,NA,"pilot1",1,"2025-11-30_21h50.02.918","genevsky2025_cwu","2023.2.3","Win32",119.047619,"5de9d78ebe656d10e1a26af6","692d1bf328f7b93b96e2a24d","692d1e6226754705b73adb22",NA,NA,"",NA,NA,NA,NA,"",NA,NA,NA,NA,558.4322,570.429,NA,NA,NA,NA,570.429,572.4284,0,37,37,24,1,25,25,"stimuli/img/neg1.jpg","Famine conditions have affected many in Africa. Sustainable farming practices have the potential to solve much of the world's hunger problems and provide enough food to adequately feed people in current famine regions. Establishing these farming practices is an effective way to avert a famine crisis. This program sends volunteers to Zimbabwe to teach people how to begin and maintain local sustainable farms in their communities.","n","p",1,NA,NA,NA,NA,NA
"39",NA,NA,"",NA,NA,"pilot1",1,"2025-11-30_21h50.02.918","genevsky2025_cwu","2023.2.3","Win32",119.047619,"5de9d78ebe656d10e1a26af6","692d1bf328f7b93b96e2a24d","692d1e6226754705b73adb22",NA,NA,"",NA,NA,NA,NA,"",NA,NA,NA,NA,572.4286,584.4255,2,11.8502,NA,NA,584.4255,586.425,0,38,38,30,1,31,31,"stimuli/img/neg1.jpg","Famine conditions have affected many in Africa. Sustainable farming practices have the potential to solve much of the world's hunger problems and provide enough food to adequately feed people in current famine regions. Establishing these farming practices is an effective way to avert a famine crisis. This program sends volunteers to Zimbabwe to teach people how to begin and maintain local sustainable farms in their communities.","n","p",0,NA,NA,NA,NA,NA
"40",NA,NA,"",NA,NA,"pilot1",1,"2025-11-30_21h50.02.918","genevsky2025_cwu","2023.2.3","Win32",119.047619,"5de9d78ebe656d10e1a26af6","692d1bf328f7b93b96e2a24d","692d1e6226754705b73adb22",NA,NA,"",NA,NA,NA,NA,"",NA,NA,NA,NA,586.4251,598.422,NA,NA,4,11.8583,598.4221,600.4216,0,39,39,31,1,32,32,"stimuli/img/neg1.jpg","Famine conditions in Africa have steadily deteriorated. Families are living on less than a cup of rice each day. Many have already lost family members to starvation since the famine began and are in grave danger themselves. This program will send food to the starving in rural communities in an attempt to avoid further famine related deaths.","n","n",1,NA,NA,NA,NA,NA
"41",NA,NA,"",NA,NA,"pilot1",1,"2025-11-30_21h50.02.918","genevsky2025_cwu","2023.2.3","Win32",119.047619,"5de9d78ebe656d10e1a26af6","692d1bf328f7b93b96e2a24d","692d1e6226754705b73adb22",NA,NA,"",NA,NA,NA,NA,"",NA,NA,NA,NA,600.4219,612.4186,2,11.7588,NA,NA,612.4187,614.4181,0,40,40,5,1,6,6,"stimuli/img/pos1.jpg","Famine conditions in Africa have steadily deteriorated. Families are living on less than a cup of rice each day. Many have already lost family members to starvation since the famine began and are in grave danger themselves. This program will send food to the starving in rural communities in an attempt to avoid further famine related deaths.","p","n",0,NA,NA,NA,NA,NA
"42",NA,NA,"",NA,NA,"pilot1",1,"2025-11-30_21h50.02.918","genevsky2025_cwu","2023.2.3","Win32",119.047619,"5de9d78ebe656d10e1a26af6","692d1bf328f7b93b96e2a24d","692d1e6226754705b73adb22",NA,NA,"",NA,NA,NA,NA,"",NA,NA,NA,NA,614.4184,626.4152,NA,NA,4,11.6576,626.4152,628.4147,0,41,41,6,1,7,7,"stimuli/img/pos1.jpg","Famine conditions have affected many in Africa. Sustainable farming practices have the potential to solve much of the world's hunger problems and provide enough food to adequately feed people in current famine regions. Establishing these farming practices is an effective way to avert a famine crisis. This program sends volunteers to Zimbabwe to teach people how to begin and maintain local sustainable farms in their communities.","p","p",1,NA,NA,NA,NA,NA
"43",NA,NA,"",NA,NA,"pilot1",1,"2025-11-30_21h50.02.918","genevsky2025_cwu","2023.2.3","Win32",119.047619,"5de9d78ebe656d10e1a26af6","692d1bf328f7b93b96e2a24d","692d1e6226754705b73adb22",NA,NA,"",NA,NA,NA,NA,"",NA,NA,NA,NA,628.4151,640.4117,NA,NA,4,11.7119,640.4118,642.4113,0,42,42,2,1,3,3,"stimuli/img/pos1.jpg","Famine conditions have affected many in Africa. Sustainable farming practices have the potential to solve much of the world's hunger problems and provide enough food to adequately feed people in current famine regions. Establishing these farming practices is an effective way to avert a famine crisis. This program sends volunteers to Zimbabwe to teach people how to begin and maintain local sustainable farms in their communities.","p","p",1,NA,NA,NA,NA,NA
"44",NA,NA,"",NA,NA,"pilot1",1,"2025-11-30_21h50.02.918","genevsky2025_cwu","2023.2.3","Win32",119.047619,"5de9d78ebe656d10e1a26af6","692d1bf328f7b93b96e2a24d","692d1e6226754705b73adb22",NA,NA,"",NA,NA,NA,NA,"",NA,NA,NA,NA,642.4118,654.4122,NA,NA,NA,NA,654.4122,656.4078,0,43,43,0,1,1,1,"stimuli/img/pos1.jpg","Famine conditions have affected many in Africa. Sustainable farming practices have the potential to solve much of the world's hunger problems and provide enough food to adequately feed people in current famine regions. Establishing these farming practices is an effective way to avert a famine crisis. This program sends volunteers to Zimbabwe to teach people how to begin and maintain local sustainable farms in their communities.","p","p",0,NA,NA,NA,NA,NA
"45",NA,NA,"",NA,NA,"pilot1",1,"2025-11-30_21h50.02.918","genevsky2025_cwu","2023.2.3","Win32",119.047619,"5de9d78ebe656d10e1a26af6","692d1bf328f7b93b96e2a24d","692d1e6226754705b73adb22",NA,NA,"",NA,NA,NA,NA,"",NA,NA,NA,NA,656.4081,668.4088,2,11.5089,NA,NA,668.4088,670.4045,0,44,44,29,1,30,30,"stimuli/img/neg1.jpg","Famine conditions in Africa have steadily deteriorated. Families are living on less than a cup of rice each day. Many have already lost family members to starvation since the famine began and are in grave danger themselves. This program will send food to the starving in rural communities in an attempt to avoid further famine related deaths.","n","n",0,NA,NA,NA,NA,NA
"46",NA,NA,"",NA,NA,"pilot1",1,"2025-11-30_21h50.02.918","genevsky2025_cwu","2023.2.3","Win32",119.047619,"5de9d78ebe656d10e1a26af6","692d1bf328f7b93b96e2a24d","692d1e6226754705b73adb22",NA,NA,"",NA,NA,NA,NA,"",NA,NA,NA,NA,670.4048,682.4015,2,11.6847,NA,NA,682.4015,684.401,0,45,45,46,1,47,47,"stimuli/img/neg3.jpg","Famine conditions have affected many in Africa. Sustainable farming practices have the potential to solve much of the world's hunger problems and provide enough food to adequately feed people in current famine regions. Establishing these farming practices is an effective way to avert a famine crisis. This program sends volunteers to Zimbabwe to teach people how to begin and maintain local sustainable farms in their communities.","n","p",0,NA,NA,NA,NA,NA
"47",NA,NA,"",NA,NA,"pilot1",1,"2025-11-30_21h50.02.918","genevsky2025_cwu","2023.2.3","Win32",119.047619,"5de9d78ebe656d10e1a26af6","692d1bf328f7b93b96e2a24d","692d1e6226754705b73adb22",NA,NA,"",NA,NA,NA,NA,"",NA,NA,NA,NA,684.4013,696.398,NA,NA,4,11.8008,696.398,698.3975,0,46,46,40,1,41,41,"stimuli/img/neg3.jpg","Famine conditions have affected many in Africa. Sustainable farming practices have the potential to solve much of the world's hunger problems and provide enough food to adequately feed people in current famine regions. Establishing these farming practices is an effective way to avert a famine crisis. This program sends volunteers to Zimbabwe to teach people how to begin and maintain local sustainable farms in their communities.","n","p",1,NA,NA,NA,NA,NA
"48",NA,NA,"",NA,NA,"pilot1",1,"2025-11-30_21h50.02.918","genevsky2025_cwu","2023.2.3","Win32",119.047619,"5de9d78ebe656d10e1a26af6","692d1bf328f7b93b96e2a24d","692d1e6226754705b73adb22",NA,NA,"",NA,NA,NA,NA,"",NA,NA,NA,NA,698.3977,710.3947,NA,NA,NA,NA,710.3947,712.3941,0,47,47,43,1,44,44,"stimuli/img/neg3.jpg","Famine conditions in Africa have steadily deteriorated. Families are living on less than a cup of rice each day. Many have already lost family members to starvation since the famine began and are in grave danger themselves. This program will send food to the starving in rural communities in an attempt to avoid further famine related deaths.","n","n",0,NA,NA,NA,NA,NA
"49",NA,NA,"",NA,NA,"pilot2",1,"2025-12-01_00h14.44.251","genevsky2025_cwu","2023.2.3","Win32",60.24096386,"6724260700cede758eb0c062","692d1bf328f7b93b96e2a24d","692d242f25f0273a173a3bb5",NA,NA,"",NA,NA,NA,NA,"",NA,NA,NA,NA,132.7087,144.7123,NA,NA,NA,NA,144.7126,146.7123,0,0,0,0,1,1,1,"stimuli/img/pos1.jpg","Famine conditions have affected many in Africa. Sustainable farming practices have the potential to solve much of the world's hunger problems and provide enough food to adequately feed people in current famine regions. Establishing these farming practices is an effective way to avert a famine crisis. This program sends volunteers to Zimbabwe to teach people how to begin and maintain local sustainable farms in their communities.","p","p",0,NA,NA,NA,NA,NA
"50",NA,NA,"",NA,NA,"pilot2",1,"2025-12-01_00h14.44.251","genevsky2025_cwu","2023.2.3","Win32",60.24096386,"6724260700cede758eb0c062","692d1bf328f7b93b96e2a24d","692d242f25f0273a173a3bb5",NA,NA,"",NA,NA,NA,NA,"",NA,NA,NA,NA,146.7128,158.7119,2,11.3078,NA,NA,158.7119,160.7122,0,1,1,9,1,10,10,"stimuli/img/pos2.jpg","Famine conditions in Africa have steadily deteriorated. Families are living on less than a cup of rice each day. Many have already lost family members to starvation since the famine began and are in grave danger themselves. This program will send food to the starving in rural communities in an attempt to avoid further famine related deaths.","p","n",0,NA,NA,NA,NA,NA
"51",NA,NA,"",NA,NA,"pilot2",1,"2025-12-01_00h14.44.251","genevsky2025_cwu","2023.2.3","Win32",60.24096386,"6724260700cede758eb0c062","692d1bf328f7b93b96e2a24d","692d242f25f0273a173a3bb5",NA,NA,"",NA,NA,NA,NA,"",NA,NA,NA,NA,160.7125,172.712,NA,NA,NA,NA,172.7121,174.7117,0,2,2,45,1,46,46,"stimuli/img/neg3.jpg","Famine conditions in Africa have steadily deteriorated. Families are living on less than a cup of rice each day. Many have already lost family members to starvation since the famine began and are in grave danger themselves. This program will send food to the starving in rural communities in an attempt to avoid further famine related deaths.","n","n",1,NA,NA,NA,NA,NA
"52",NA,NA,"",NA,NA,"pilot2",1,"2025-12-01_00h14.44.251","genevsky2025_cwu","2023.2.3","Win32",60.24096386,"6724260700cede758eb0c062","692d1bf328f7b93b96e2a24d","692d242f25f0273a173a3bb5",NA,NA,"",NA,NA,NA,NA,"",NA,NA,NA,NA,174.7121,186.7121,2,11.3622,NA,NA,186.7122,188.7126,0,3,3,5,1,6,6,"stimuli/img/pos1.jpg","Famine conditions in Africa have steadily deteriorated. Families are living on less than a cup of rice each day. Many have already lost family members to starvation since the famine began and are in grave danger themselves. This program will send food to the starving in rural communities in an attempt to avoid further famine related deaths.","p","n",0,NA,NA,NA,NA,NA
"53",NA,NA,"",NA,NA,"pilot2",1,"2025-12-01_00h14.44.251","genevsky2025_cwu","2023.2.3","Win32",60.24096386,"6724260700cede758eb0c062","692d1bf328f7b93b96e2a24d","692d242f25f0273a173a3bb5",NA,NA,"",NA,NA,NA,NA,"",NA,NA,NA,NA,188.7134,200.712,NA,NA,4,11.3457,200.7121,202.7121,0,4,4,42,1,43,43,"stimuli/img/neg3.jpg","Famine conditions have affected many in Africa. Sustainable farming practices have the potential to solve much of the world's hunger problems and provide enough food to adequately feed people in current famine regions. Establishing these farming practices is an effective way to avert a famine crisis. This program sends volunteers to Zimbabwe to teach people how to begin and maintain local sustainable farms in their communities.","n","p",1,NA,NA,NA,NA,NA
"54",NA,NA,"",NA,NA,"pilot2",1,"2025-12-01_00h14.44.251","genevsky2025_cwu","2023.2.3","Win32",60.24096386,"6724260700cede758eb0c062","692d1bf328f7b93b96e2a24d","692d242f25f0273a173a3bb5",NA,NA,"",NA,NA,NA,NA,"",NA,NA,NA,NA,202.7127,214.712,NA,NA,4,11.9559,214.7121,216.7119,0,5,5,38,1,39,39,"stimuli/img/neg2.jpg","Famine conditions have affected many in Africa. Sustainable farming practices have the potential to solve much of the world's hunger problems and provide enough food to adequately feed people in current famine regions. Establishing these farming practices is an effective way to avert a famine crisis. This program sends volunteers to Zimbabwe to teach people how to begin and maintain local sustainable farms in their communities.","n","p",1,NA,NA,NA,NA,NA
"55",NA,NA,"",NA,NA,"pilot2",1,"2025-12-01_00h14.44.251","genevsky2025_cwu","2023.2.3","Win32",60.24096386,"6724260700cede758eb0c062","692d1bf328f7b93b96e2a24d","692d242f25f0273a173a3bb5",NA,NA,"",NA,NA,NA,NA,"",NA,NA,NA,NA,216.7122,228.7119,NA,NA,4,11.1769,228.7119,230.7122,0,6,6,36,1,37,37,"stimuli/img/neg2.jpg","Famine conditions have affected many in Africa. Sustainable farming practices have the potential to solve much of the world's hunger problems and provide enough food to adequately feed people in current famine regions. Establishing these farming practices is an effective way to avert a famine crisis. This program sends volunteers to Zimbabwe to teach people how to begin and maintain local sustainable farms in their communities.","n","p",1,NA,NA,NA,NA,NA
"56",NA,NA,"",NA,NA,"pilot2",1,"2025-12-01_00h14.44.251","genevsky2025_cwu","2023.2.3","Win32",60.24096386,"6724260700cede758eb0c062","692d1bf328f7b93b96e2a24d","692d242f25f0273a173a3bb5",NA,NA,"",NA,NA,NA,NA,"",NA,NA,NA,NA,230.7126,242.7118,2,11.511,NA,NA,242.7118,244.7118,0,7,7,37,1,38,38,"stimuli/img/neg2.jpg","Famine conditions in Africa have steadily deteriorated. Families are living on less than a cup of rice each day. Many have already lost family members to starvation since the famine began and are in grave danger themselves. This program will send food to the starving in rural communities in an attempt to avoid further famine related deaths.","n","n",0,NA,NA,NA,NA,NA
"57",NA,NA,"",NA,NA,"pilot2",1,"2025-12-01_00h14.44.251","genevsky2025_cwu","2023.2.3","Win32",60.24096386,"6724260700cede758eb0c062","692d1bf328f7b93b96e2a24d","692d242f25f0273a173a3bb5",NA,NA,"",NA,NA,NA,NA,"",NA,NA,NA,NA,244.7122,256.7116,2,11.3571,NA,NA,256.7116,258.7119,0,8,8,23,1,24,24,"stimuli/img/pos3.jpg","Famine conditions in Africa have steadily deteriorated. Families are living on less than a cup of rice each day. Many have already lost family members to starvation since the famine began and are in grave danger themselves. This program will send food to the starving in rural communities in an attempt to avoid further famine related deaths.","p","n",0,NA,NA,NA,NA,NA
"58",NA,NA,"",NA,NA,"pilot2",1,"2025-12-01_00h14.44.251","genevsky2025_cwu","2023.2.3","Win32",60.24096386,"6724260700cede758eb0c062","692d1bf328f7b93b96e2a24d","692d242f25f0273a173a3bb5",NA,NA,"",NA,NA,NA,NA,"",NA,NA,NA,NA,258.7124,270.7119,2,11.5115,NA,NA,270.712,272.712,0,9,9,13,1,14,14,"stimuli/img/pos2.jpg","Famine conditions in Africa have steadily deteriorated. Families are living on less than a cup of rice each day. Many have already lost family members to starvation since the famine began and are in grave danger themselves. This program will send food to the starving in rural communities in an attempt to avoid further famine related deaths.","p","n",0,NA,NA,NA,NA,NA
"59",NA,NA,"",NA,NA,"pilot2",1,"2025-12-01_00h14.44.251","genevsky2025_cwu","2023.2.3","Win32",60.24096386,"6724260700cede758eb0c062","692d1bf328f7b93b96e2a24d","692d242f25f0273a173a3bb5",NA,NA,"",NA,NA,NA,NA,"",NA,NA,NA,NA,272.7125,284.7119,NA,NA,4,11.7758,284.7119,286.7117,0,10,10,2,1,3,3,"stimuli/img/pos1.jpg","Famine conditions have affected many in Africa. Sustainable farming practices have the potential to solve much of the world's hunger problems and provide enough food to adequately feed people in current famine regions. Establishing these farming practices is an effective way to avert a famine crisis. This program sends volunteers to Zimbabwe to teach people how to begin and maintain local sustainable farms in their communities.","p","p",1,NA,NA,NA,NA,NA
"60",NA,NA,"",NA,NA,"pilot2",1,"2025-12-01_00h14.44.251","genevsky2025_cwu","2023.2.3","Win32",60.24096386,"6724260700cede758eb0c062","692d1bf328f7b93b96e2a24d","692d242f25f0273a173a3bb5",NA,NA,"",NA,NA,NA,NA,"",NA,NA,NA,NA,286.7121,298.7122,NA,NA,4,11.7227,298.7123,300.7118,0,11,11,12,1,13,13,"stimuli/img/pos2.jpg","Famine conditions have affected many in Africa. Sustainable farming practices have the potential to solve much of the world's hunger problems and provide enough food to adequately feed people in current famine regions. Establishing these farming practices is an effective way to avert a famine crisis. This program sends volunteers to Zimbabwe to teach people how to begin and maintain local sustainable farms in their communities.","p","p",1,NA,NA,NA,NA,NA
"61",NA,NA,"",NA,NA,"pilot2",1,"2025-12-01_00h14.44.251","genevsky2025_cwu","2023.2.3","Win32",60.24096386,"6724260700cede758eb0c062","692d1bf328f7b93b96e2a24d","692d242f25f0273a173a3bb5",NA,NA,"",NA,NA,NA,NA,"",NA,NA,NA,NA,300.7122,312.7122,2,11.7452,NA,NA,312.7123,314.7118,0,12,12,10,1,11,11,"stimuli/img/pos2.jpg","Famine conditions have affected many in Africa. Sustainable farming practices have the potential to solve much of the world's hunger problems and provide enough food to adequately feed people in current famine regions. Establishing these farming practices is an effective way to avert a famine crisis. This program sends volunteers to Zimbabwe to teach people how to begin and maintain local sustainable farms in their communities.","p","p",0,NA,NA,NA,NA,NA
"62",NA,NA,"",NA,NA,"pilot2",1,"2025-12-01_00h14.44.251","genevsky2025_cwu","2023.2.3","Win32",60.24096386,"6724260700cede758eb0c062","692d1bf328f7b93b96e2a24d","692d242f25f0273a173a3bb5",NA,NA,"",NA,NA,NA,NA,"",NA,NA,NA,NA,314.7122,326.7119,NA,NA,4,11.7879,326.712,328.7123,0,13,13,27,1,28,28,"stimuli/img/neg1.jpg","Famine conditions in Africa have steadily deteriorated. Families are living on less than a cup of rice each day. Many have already lost family members to starvation since the famine began and are in grave danger themselves. This program will send food to the starving in rural communities in an attempt to avoid further famine related deaths.","n","n",1,NA,NA,NA,NA,NA
"63",NA,NA,"",NA,NA,"pilot2",1,"2025-12-01_00h14.44.251","genevsky2025_cwu","2023.2.3","Win32",60.24096386,"6724260700cede758eb0c062","692d1bf328f7b93b96e2a24d","692d242f25f0273a173a3bb5",NA,NA,"",NA,NA,NA,NA,"",NA,NA,NA,NA,328.7126,340.7122,NA,NA,4,11.3885,340.7123,342.712,0,14,14,4,1,5,5,"stimuli/img/pos1.jpg","Famine conditions have affected many in Africa. Sustainable farming practices have the potential to solve much of the world's hunger problems and provide enough food to adequately feed people in current famine regions. Establishing these farming practices is an effective way to avert a famine crisis. This program sends volunteers to Zimbabwe to teach people how to begin and maintain local sustainable farms in their communities.","p","p",1,NA,NA,NA,NA,NA
"64",NA,NA,"",NA,NA,"pilot2",1,"2025-12-01_00h14.44.251","genevsky2025_cwu","2023.2.3","Win32",60.24096386,"6724260700cede758eb0c062","692d1bf328f7b93b96e2a24d","692d242f25f0273a173a3bb5",NA,NA,"",NA,NA,NA,NA,"",NA,NA,NA,NA,342.7123,354.7119,2,11.5241,NA,NA,354.7119,356.7117,0,15,15,16,1,17,17,"stimuli/img/pos3.jpg","Famine conditions have affected many in Africa. Sustainable farming practices have the potential to solve much of the world's hunger problems and provide enough food to adequately feed people in current famine regions. Establishing these farming practices is an effective way to avert a famine crisis. This program sends volunteers to Zimbabwe to teach people how to begin and maintain local sustainable farms in their communities.","p","p",0,NA,NA,NA,NA,NA
"65",NA,NA,"",NA,NA,"pilot2",1,"2025-12-01_00h14.44.251","genevsky2025_cwu","2023.2.3","Win32",60.24096386,"6724260700cede758eb0c062","692d1bf328f7b93b96e2a24d","692d242f25f0273a173a3bb5",NA,NA,"",NA,NA,NA,NA,"",NA,NA,NA,NA,356.712,368.7118,2,11.3406,NA,NA,368.7119,370.7118,0,16,16,41,1,42,42,"stimuli/img/neg3.jpg","Famine conditions in Africa have steadily deteriorated. Families are living on less than a cup of rice each day. Many have already lost family members to starvation since the famine began and are in grave danger themselves. This program will send food to the starving in rural communities in an attempt to avoid further famine related deaths.","n","n",0,NA,NA,NA,NA,NA
"66",NA,NA,"",NA,NA,"pilot2",1,"2025-12-01_00h14.44.251","genevsky2025_cwu","2023.2.3","Win32",60.24096386,"6724260700cede758eb0c062","692d1bf328f7b93b96e2a24d","692d242f25f0273a173a3bb5",NA,NA,"",NA,NA,NA,NA,"",NA,NA,NA,NA,370.7123,382.7119,NA,NA,4,11.8055,382.712,384.7118,0,17,17,14,1,15,15,"stimuli/img/pos2.jpg","Famine conditions have affected many in Africa. Sustainable farming practices have the potential to solve much of the world's hunger problems and provide enough food to adequately feed people in current famine regions. Establishing these farming practices is an effective way to avert a famine crisis. This program sends volunteers to Zimbabwe to teach people how to begin and maintain local sustainable farms in their communities.","p","p",1,NA,NA,NA,NA,NA
"67",NA,NA,"",NA,NA,"pilot2",1,"2025-12-01_00h14.44.251","genevsky2025_cwu","2023.2.3","Win32",60.24096386,"6724260700cede758eb0c062","692d1bf328f7b93b96e2a24d","692d242f25f0273a173a3bb5",NA,NA,"",NA,NA,NA,NA,"",NA,NA,NA,NA,384.712,396.7117,2,11.461,NA,NA,396.7117,398.712,0,18,18,25,1,26,26,"stimuli/img/neg1.jpg","Famine conditions in Africa have steadily deteriorated. Families are living on less than a cup of rice each day. Many have already lost family members to starvation since the famine began and are in grave danger themselves. This program will send food to the starving in rural communities in an attempt to avoid further famine related deaths.","n","n",0,NA,NA,NA,NA,NA
"68",NA,NA,"",NA,NA,"pilot2",1,"2025-12-01_00h14.44.251","genevsky2025_cwu","2023.2.3","Win32",60.24096386,"6724260700cede758eb0c062","692d1bf328f7b93b96e2a24d","692d242f25f0273a173a3bb5",NA,NA,"",NA,NA,NA,NA,"",NA,NA,NA,NA,398.7122,410.7118,2,11.2249,NA,NA,410.7119,412.712,0,19,19,26,1,27,27,"stimuli/img/neg1.jpg","Famine conditions have affected many in Africa. Sustainable farming practices have the potential to solve much of the world's hunger problems and provide enough food to adequately feed people in current famine regions. Establishing these farming practices is an effective way to avert a famine crisis. This program sends volunteers to Zimbabwe to teach people how to begin and maintain local sustainable farms in their communities.","n","p",0,NA,NA,NA,NA,NA
"69",NA,NA,"",NA,NA,"pilot2",1,"2025-12-01_00h14.44.251","genevsky2025_cwu","2023.2.3","Win32",60.24096386,"6724260700cede758eb0c062","692d1bf328f7b93b96e2a24d","692d242f25f0273a173a3bb5",NA,NA,"",NA,NA,NA,NA,"",NA,NA,NA,NA,412.7124,424.7117,2,11.1099,NA,NA,424.7118,426.7117,0,20,20,35,1,36,36,"stimuli/img/neg2.jpg","Famine conditions in Africa have steadily deteriorated. Families are living on less than a cup of rice each day. Many have already lost family members to starvation since the famine began and are in grave danger themselves. This program will send food to the starving in rural communities in an attempt to avoid further famine related deaths.","n","n",0,NA,NA,NA,NA,NA
"70",NA,NA,"",NA,NA,"pilot2",1,"2025-12-01_00h14.44.251","genevsky2025_cwu","2023.2.3","Win32",60.24096386,"6724260700cede758eb0c062","692d1bf328f7b93b96e2a24d","692d242f25f0273a173a3bb5",NA,NA,"",NA,NA,NA,NA,"",NA,NA,NA,NA,426.7121,438.7118,NA,NA,4,11.762,438.7119,440.7119,0,21,21,7,1,8,8,"stimuli/img/pos1.jpg","Famine conditions in Africa have steadily deteriorated. Families are living on less than a cup of rice each day. Many have already lost family members to starvation since the famine began and are in grave danger themselves. This program will send food to the starving in rural communities in an attempt to avoid further famine related deaths.","p","n",1,NA,NA,NA,NA,NA
"71",NA,NA,"",NA,NA,"pilot2",1,"2025-12-01_00h14.44.251","genevsky2025_cwu","2023.2.3","Win32",60.24096386,"6724260700cede758eb0c062","692d1bf328f7b93b96e2a24d","692d242f25f0273a173a3bb5",NA,NA,"",NA,NA,NA,NA,"",NA,NA,NA,NA,440.7123,452.7121,NA,NA,4,10.7902,452.7121,454.7117,0,22,22,17,1,18,18,"stimuli/img/pos3.jpg","Famine conditions in Africa have steadily deteriorated. Families are living on less than a cup of rice each day. Many have already lost family members to starvation since the famine began and are in grave danger themselves. This program will send food to the starving in rural communities in an attempt to avoid further famine related deaths.","p","n",1,NA,NA,NA,NA,NA
"72",NA,NA,"",NA,NA,"pilot2",1,"2025-12-01_00h14.44.251","genevsky2025_cwu","2023.2.3","Win32",60.24096386,"6724260700cede758eb0c062","692d1bf328f7b93b96e2a24d","692d242f25f0273a173a3bb5",NA,NA,"",NA,NA,NA,NA,"",NA,NA,NA,NA,454.712,466.7118,NA,NA,4,11.4773,466.7118,468.7122,0,23,23,39,1,40,40,"stimuli/img/neg2.jpg","Famine conditions in Africa have steadily deteriorated. Families are living on less than a cup of rice each day. Many have already lost family members to starvation since the famine began and are in grave danger themselves. This program will send food to the starving in rural communities in an attempt to avoid further famine related deaths.","n","n",1,NA,NA,NA,NA,NA
"73",NA,NA,"",NA,NA,"pilot2",1,"2025-12-01_00h14.44.251","genevsky2025_cwu","2023.2.3","Win32",60.24096386,"6724260700cede758eb0c062","692d1bf328f7b93b96e2a24d","692d242f25f0273a173a3bb5",NA,NA,"",NA,NA,NA,NA,"",NA,NA,NA,NA,468.7125,480.712,NA,NA,4,11.0772,480.7121,482.712,0,24,24,6,1,7,7,"stimuli/img/pos1.jpg","Famine conditions have affected many in Africa. Sustainable farming practices have the potential to solve much of the world's hunger problems and provide enough food to adequately feed people in current famine regions. Establishing these farming practices is an effective way to avert a famine crisis. This program sends volunteers to Zimbabwe to teach people how to begin and maintain local sustainable farms in their communities.","p","p",1,NA,NA,NA,NA,NA
"74",NA,NA,"",NA,NA,"pilot2",1,"2025-12-01_00h14.44.251","genevsky2025_cwu","2023.2.3","Win32",60.24096386,"6724260700cede758eb0c062","692d1bf328f7b93b96e2a24d","692d242f25f0273a173a3bb5",NA,NA,"",NA,NA,NA,NA,"",NA,NA,NA,NA,482.7125,494.7118,NA,NA,NA,NA,494.7118,496.712,0,25,25,1,1,2,2,"stimuli/img/pos1.jpg","Famine conditions in Africa have steadily deteriorated. Families are living on less than a cup of rice each day. Many have already lost family members to starvation since the famine began and are in grave danger themselves. This program will send food to the starving in rural communities in an attempt to avoid further famine related deaths.","p","n",0,NA,NA,NA,NA,NA
"75",NA,NA,"",NA,NA,"pilot2",1,"2025-12-01_00h14.44.251","genevsky2025_cwu","2023.2.3","Win32",60.24096386,"6724260700cede758eb0c062","692d1bf328f7b93b96e2a24d","692d242f25f0273a173a3bb5",NA,NA,"",NA,NA,NA,NA,"",NA,NA,NA,NA,496.7123,508.7121,2,10.8552,NA,NA,508.7121,510.7122,0,26,26,33,1,34,34,"stimuli/img/neg2.jpg","Famine conditions in Africa have steadily deteriorated. Families are living on less than a cup of rice each day. Many have already lost family members to starvation since the famine began and are in grave danger themselves. This program will send food to the starving in rural communities in an attempt to avoid further famine related deaths.","n","n",0,NA,NA,NA,NA,NA
"76",NA,NA,"",NA,NA,"pilot2",1,"2025-12-01_00h14.44.251","genevsky2025_cwu","2023.2.3","Win32",60.24096386,"6724260700cede758eb0c062","692d1bf328f7b93b96e2a24d","692d242f25f0273a173a3bb5",NA,NA,"",NA,NA,NA,NA,"",NA,NA,NA,NA,510.7128,522.7116,2,10.7064,NA,NA,522.7116,524.712,0,27,27,43,1,44,44,"stimuli/img/neg3.jpg","Famine conditions in Africa have steadily deteriorated. Families are living on less than a cup of rice each day. Many have already lost family members to starvation since the famine began and are in grave danger themselves. This program will send food to the starving in rural communities in an attempt to avoid further famine related deaths.","n","n",0,NA,NA,NA,NA,NA
"77",NA,NA,"",NA,NA,"pilot2",1,"2025-12-01_00h14.44.251","genevsky2025_cwu","2023.2.3","Win32",60.24096386,"6724260700cede758eb0c062","692d1bf328f7b93b96e2a24d","692d242f25f0273a173a3bb5",NA,NA,"",NA,NA,NA,NA,"",NA,NA,NA,NA,524.7124,536.7118,NA,NA,4,11.8034,536.7119,538.7123,0,28,28,32,1,33,33,"stimuli/img/neg2.jpg","Famine conditions have affected many in Africa. Sustainable farming practices have the potential to solve much of the world's hunger problems and provide enough food to adequately feed people in current famine regions. Establishing these farming practices is an effective way to avert a famine crisis. This program sends volunteers to Zimbabwe to teach people how to begin and maintain local sustainable farms in their communities.","n","p",1,NA,NA,NA,NA,NA
"78",NA,NA,"",NA,NA,"pilot2",1,"2025-12-01_00h14.44.251","genevsky2025_cwu","2023.2.3","Win32",60.24096386,"6724260700cede758eb0c062","692d1bf328f7b93b96e2a24d","692d242f25f0273a173a3bb5",NA,NA,"",NA,NA,NA,NA,"",NA,NA,NA,NA,538.713,550.7118,NA,NA,4,11.2599,550.7118,552.7124,0,29,29,18,1,19,19,"stimuli/img/pos3.jpg","Famine conditions have affected many in Africa. Sustainable farming practices have the potential to solve much of the world's hunger problems and provide enough food to adequately feed people in current famine regions. Establishing these farming practices is an effective way to avert a famine crisis. This program sends volunteers to Zimbabwe to teach people how to begin and maintain local sustainable farms in their communities.","p","p",1,NA,NA,NA,NA,NA
"79",NA,NA,"",NA,NA,"pilot2",1,"2025-12-01_00h14.44.251","genevsky2025_cwu","2023.2.3","Win32",60.24096386,"6724260700cede758eb0c062","692d1bf328f7b93b96e2a24d","692d242f25f0273a173a3bb5",NA,NA,"",NA,NA,NA,NA,"",NA,NA,NA,NA,552.7128,564.7119,2,11.705,NA,NA,564.712,566.7119,0,30,30,29,1,30,30,"stimuli/img/neg1.jpg","Famine conditions in Africa have steadily deteriorated. Families are living on less than a cup of rice each day. Many have already lost family members to starvation since the famine began and are in grave danger themselves. This program will send food to the starving in rural communities in an attempt to avoid further famine related deaths.","n","n",0,NA,NA,NA,NA,NA
"80",NA,NA,"",NA,NA,"pilot2",1,"2025-12-01_00h14.44.251","genevsky2025_cwu","2023.2.3","Win32",60.24096386,"6724260700cede758eb0c062","692d1bf328f7b93b96e2a24d","692d242f25f0273a173a3bb5",NA,NA,"",NA,NA,NA,NA,"",NA,NA,NA,NA,566.7123,578.7119,2,11.4208,NA,NA,578.7119,580.7119,0,31,31,28,1,29,29,"stimuli/img/neg1.jpg","Famine conditions have affected many in Africa. Sustainable farming practices have the potential to solve much of the world's hunger problems and provide enough food to adequately feed people in current famine regions. Establishing these farming practices is an effective way to avert a famine crisis. This program sends volunteers to Zimbabwe to teach people how to begin and maintain local sustainable farms in their communities.","n","p",0,NA,NA,NA,NA,NA
"81",NA,NA,"",NA,NA,"pilot2",1,"2025-12-01_00h14.44.251","genevsky2025_cwu","2023.2.3","Win32",60.24096386,"6724260700cede758eb0c062","692d1bf328f7b93b96e2a24d","692d242f25f0273a173a3bb5",NA,NA,"",NA,NA,NA,NA,"",NA,NA,NA,NA,580.7121,592.7118,2,11.0437,NA,NA,592.7119,594.7117,0,32,32,8,1,9,9,"stimuli/img/pos2.jpg","Famine conditions have affected many in Africa. Sustainable farming practices have the potential to solve much of the world's hunger problems and provide enough food to adequately feed people in current famine regions. Establishing these farming practices is an effective way to avert a famine crisis. This program sends volunteers to Zimbabwe to teach people how to begin and maintain local sustainable farms in their communities.","p","p",0,NA,NA,NA,NA,NA
"82",NA,NA,"",NA,NA,"pilot2",1,"2025-12-01_00h14.44.251","genevsky2025_cwu","2023.2.3","Win32",60.24096386,"6724260700cede758eb0c062","692d1bf328f7b93b96e2a24d","692d242f25f0273a173a3bb5",NA,NA,"",NA,NA,NA,NA,"",NA,NA,NA,NA,594.712,606.712,NA,NA,NA,NA,606.712,608.7122,0,33,33,19,1,20,20,"stimuli/img/pos3.jpg","Famine conditions in Africa have steadily deteriorated. Families are living on less than a cup of rice each day. Many have already lost family members to starvation since the famine began and are in grave danger themselves. This program will send food to the starving in rural communities in an attempt to avoid further famine related deaths.","p","n",1,NA,NA,NA,NA,NA
"83",NA,NA,"",NA,NA,"pilot2",1,"2025-12-01_00h14.44.251","genevsky2025_cwu","2023.2.3","Win32",60.24096386,"6724260700cede758eb0c062","692d1bf328f7b93b96e2a24d","692d242f25f0273a173a3bb5",NA,NA,"",NA,NA,NA,NA,"",NA,NA,NA,NA,608.7128,620.7119,NA,NA,4,10.8537,620.712,622.7125,0,34,34,44,1,45,45,"stimuli/img/neg3.jpg","Famine conditions have affected many in Africa. Sustainable farming practices have the potential to solve much of the world's hunger problems and provide enough food to adequately feed people in current famine regions. Establishing these farming practices is an effective way to avert a famine crisis. This program sends volunteers to Zimbabwe to teach people how to begin and maintain local sustainable farms in their communities.","n","p",1,NA,NA,NA,NA,NA
"84",NA,NA,"",NA,NA,"pilot2",1,"2025-12-01_00h14.44.251","genevsky2025_cwu","2023.2.3","Win32",60.24096386,"6724260700cede758eb0c062","692d1bf328f7b93b96e2a24d","692d242f25f0273a173a3bb5",NA,NA,"",NA,NA,NA,NA,"",NA,NA,NA,NA,622.7128,634.7119,2,11.9151,NA,NA,634.7119,636.7117,0,35,35,20,1,21,21,"stimuli/img/pos3.jpg","Famine conditions have affected many in Africa. Sustainable farming practices have the potential to solve much of the world's hunger problems and provide enough food to adequately feed people in current famine regions. Establishing these farming practices is an effective way to avert a famine crisis. This program sends volunteers to Zimbabwe to teach people how to begin and maintain local sustainable farms in their communities.","p","p",0,NA,NA,NA,NA,NA
"85",NA,NA,"",NA,NA,"pilot2",1,"2025-12-01_00h14.44.251","genevsky2025_cwu","2023.2.3","Win32",60.24096386,"6724260700cede758eb0c062","692d1bf328f7b93b96e2a24d","692d242f25f0273a173a3bb5",NA,NA,"",NA,NA,NA,NA,"",NA,NA,NA,NA,636.712,648.7117,2,11.3454,NA,NA,648.7117,650.7119,0,36,36,47,1,48,48,"stimuli/img/neg3.jpg","Famine conditions in Africa have steadily deteriorated. Families are living on less than a cup of rice each day. Many have already lost family members to starvation since the famine began and are in grave danger themselves. This program will send food to the starving in rural communities in an attempt to avoid further famine related deaths.","n","n",0,NA,NA,NA,NA,NA
"86",NA,NA,"",NA,NA,"pilot2",1,"2025-12-01_00h14.44.251","genevsky2025_cwu","2023.2.3","Win32",60.24096386,"6724260700cede758eb0c062","692d1bf328f7b93b96e2a24d","692d242f25f0273a173a3bb5",NA,NA,"",NA,NA,NA,NA,"",NA,NA,NA,NA,650.7128,662.7118,NA,NA,4,11.1555,662.7118,664.7119,0,37,37,22,1,23,23,"stimuli/img/pos3.jpg","Famine conditions have affected many in Africa. Sustainable farming practices have the potential to solve much of the world's hunger problems and provide enough food to adequately feed people in current famine regions. Establishing these farming practices is an effective way to avert a famine crisis. This program sends volunteers to Zimbabwe to teach people how to begin and maintain local sustainable farms in their communities.","p","p",1,NA,NA,NA,NA,NA
"87",NA,NA,"",NA,NA,"pilot2",1,"2025-12-01_00h14.44.251","genevsky2025_cwu","2023.2.3","Win32",60.24096386,"6724260700cede758eb0c062","692d1bf328f7b93b96e2a24d","692d242f25f0273a173a3bb5",NA,NA,"",NA,NA,NA,NA,"",NA,NA,NA,NA,664.7126,676.7117,NA,NA,4,11.3395,676.7118,678.712,0,38,38,40,1,41,41,"stimuli/img/neg3.jpg","Famine conditions have affected many in Africa. Sustainable farming practices have the potential to solve much of the world's hunger problems and provide enough food to adequately feed people in current famine regions. Establishing these farming practices is an effective way to avert a famine crisis. This program sends volunteers to Zimbabwe to teach people how to begin and maintain local sustainable farms in their communities.","n","p",1,NA,NA,NA,NA,NA
"88",NA,NA,"",NA,NA,"pilot2",1,"2025-12-01_00h14.44.251","genevsky2025_cwu","2023.2.3","Win32",60.24096386,"6724260700cede758eb0c062","692d1bf328f7b93b96e2a24d","692d242f25f0273a173a3bb5",NA,NA,"",NA,NA,NA,NA,"",NA,NA,NA,NA,678.7124,690.7124,NA,NA,4,11.0065,690.7125,692.7123,0,39,39,34,1,35,35,"stimuli/img/neg2.jpg","Famine conditions have affected many in Africa. Sustainable farming practices have the potential to solve much of the world's hunger problems and provide enough food to adequately feed people in current famine regions. Establishing these farming practices is an effective way to avert a famine crisis. This program sends volunteers to Zimbabwe to teach people how to begin and maintain local sustainable farms in their communities.","n","p",1,NA,NA,NA,NA,NA
"89",NA,NA,"",NA,NA,"pilot2",1,"2025-12-01_00h14.44.251","genevsky2025_cwu","2023.2.3","Win32",60.24096386,"6724260700cede758eb0c062","692d1bf328f7b93b96e2a24d","692d242f25f0273a173a3bb5",NA,NA,"",NA,NA,NA,NA,"",NA,NA,NA,NA,692.7127,704.7122,NA,NA,4,11.6207,704.7122,706.7119,0,40,40,15,1,16,16,"stimuli/img/pos2.jpg","Famine conditions in Africa have steadily deteriorated. Families are living on less than a cup of rice each day. Many have already lost family members to starvation since the famine began and are in grave danger themselves. This program will send food to the starving in rural communities in an attempt to avoid further famine related deaths.","p","n",1,NA,NA,NA,NA,NA
"90",NA,NA,"",NA,NA,"pilot2",1,"2025-12-01_00h14.44.251","genevsky2025_cwu","2023.2.3","Win32",60.24096386,"6724260700cede758eb0c062","692d1bf328f7b93b96e2a24d","692d242f25f0273a173a3bb5",NA,NA,"",NA,NA,NA,NA,"",NA,NA,NA,NA,706.7123,718.7117,NA,NA,NA,NA,718.7118,720.7121,0,41,41,3,1,4,4,"stimuli/img/pos1.jpg","Famine conditions in Africa have steadily deteriorated. Families are living on less than a cup of rice each day. Many have already lost family members to starvation since the famine began and are in grave danger themselves. This program will send food to the starving in rural communities in an attempt to avoid further famine related deaths.","p","n",0,NA,NA,NA,NA,NA
"91",NA,NA,"",NA,NA,"pilot2",1,"2025-12-01_00h14.44.251","genevsky2025_cwu","2023.2.3","Win32",60.24096386,"6724260700cede758eb0c062","692d1bf328f7b93b96e2a24d","692d242f25f0273a173a3bb5",NA,NA,"",NA,NA,NA,NA,"",NA,NA,NA,NA,720.7123,732.7123,NA,NA,4,11.8571,732.7124,734.7124,0,42,42,31,1,32,32,"stimuli/img/neg1.jpg","Famine conditions in Africa have steadily deteriorated. Families are living on less than a cup of rice each day. Many have already lost family members to starvation since the famine began and are in grave danger themselves. This program will send food to the starving in rural communities in an attempt to avoid further famine related deaths.","n","n",1,NA,NA,NA,NA,NA
"92",NA,NA,"",NA,NA,"pilot2",1,"2025-12-01_00h14.44.251","genevsky2025_cwu","2023.2.3","Win32",60.24096386,"6724260700cede758eb0c062","692d1bf328f7b93b96e2a24d","692d242f25f0273a173a3bb5",NA,NA,"",NA,NA,NA,NA,"",NA,NA,NA,NA,734.7129,746.712,2,11.7943,NA,NA,746.7121,748.7118,0,43,43,46,1,47,47,"stimuli/img/neg3.jpg","Famine conditions have affected many in Africa. Sustainable farming practices have the potential to solve much of the world's hunger problems and provide enough food to adequately feed people in current famine regions. Establishing these farming practices is an effective way to avert a famine crisis. This program sends volunteers to Zimbabwe to teach people how to begin and maintain local sustainable farms in their communities.","n","p",0,NA,NA,NA,NA,NA
"93",NA,NA,"",NA,NA,"pilot2",1,"2025-12-01_00h14.44.251","genevsky2025_cwu","2023.2.3","Win32",60.24096386,"6724260700cede758eb0c062","692d1bf328f7b93b96e2a24d","692d242f25f0273a173a3bb5",NA,NA,"",NA,NA,NA,NA,"",NA,NA,NA,NA,748.7122,760.7118,NA,NA,NA,NA,760.7119,762.7117,0,44,44,11,1,12,12,"stimuli/img/pos2.jpg","Famine conditions in Africa have steadily deteriorated. Families are living on less than a cup of rice each day. Many have already lost family members to starvation since the famine began and are in grave danger themselves. This program will send food to the starving in rural communities in an attempt to avoid further famine related deaths.","p","n",1,NA,NA,NA,NA,NA
"94",NA,NA,"",NA,NA,"pilot2",1,"2025-12-01_00h14.44.251","genevsky2025_cwu","2023.2.3","Win32",60.24096386,"6724260700cede758eb0c062","692d1bf328f7b93b96e2a24d","692d242f25f0273a173a3bb5",NA,NA,"",NA,NA,NA,NA,"",NA,NA,NA,NA,762.7119,774.7123,NA,NA,NA,NA,774.7124,776.7118,0,45,45,30,1,31,31,"stimuli/img/neg1.jpg","Famine conditions have affected many in Africa. Sustainable farming practices have the potential to solve much of the world's hunger problems and provide enough food to adequately feed people in current famine regions. Establishing these farming practices is an effective way to avert a famine crisis. This program sends volunteers to Zimbabwe to teach people how to begin and maintain local sustainable farms in their communities.","n","p",0,NA,NA,NA,NA,NA
"95",NA,NA,"",NA,NA,"pilot2",1,"2025-12-01_00h14.44.251","genevsky2025_cwu","2023.2.3","Win32",60.24096386,"6724260700cede758eb0c062","692d1bf328f7b93b96e2a24d","692d242f25f0273a173a3bb5",NA,NA,"",NA,NA,NA,NA,"",NA,NA,NA,NA,776.7123,788.7117,2,10.9594,NA,NA,788.7117,790.712,0,46,46,21,1,22,22,"stimuli/img/pos3.jpg","Famine conditions in Africa have steadily deteriorated. Families are living on less than a cup of rice each day. Many have already lost family members to starvation since the famine began and are in grave danger themselves. This program will send food to the starving in rural communities in an attempt to avoid further famine related deaths.","p","n",0,NA,NA,NA,NA,NA
"96",NA,NA,"",NA,NA,"pilot2",1,"2025-12-01_00h14.44.251","genevsky2025_cwu","2023.2.3","Win32",60.24096386,"6724260700cede758eb0c062","692d1bf328f7b93b96e2a24d","692d242f25f0273a173a3bb5",NA,NA,"",NA,NA,NA,NA,"",NA,NA,NA,NA,790.7124,802.7119,NA,NA,4,11.876,802.7119,804.7122,0,47,47,24,1,25,25,"stimuli/img/neg1.jpg","Famine conditions have affected many in Africa. Sustainable farming practices have the potential to solve much of the world's hunger problems and provide enough food to adequately feed people in current famine regions. Establishing these farming practices is an effective way to avert a famine crisis. This program sends volunteers to Zimbabwe to teach people how to begin and maintain local sustainable farms in their communities.","n","p",1,NA,NA,NA,NA,NA
"97",NA,NA,NA,NA,NA,NA,1,"2025-11-30_21h50.02.918","genevsky2025_cwu","2023.2.3","Win32",119.047619,"5de9d78ebe656d10e1a26af6","692d1bf328f7b93b96e2a24d","692d1e6226754705b73adb22",NA,NA,NA,NA,NA,NA,NA,NA,NA,NA,NA,NA,40.5581,52.556,NA,NA,NA,NA,52.5561,54.5554,0,0,0,34,1,35,35,"stimuli/img/neg2.jpg","Famine conditions have affected many in Africa. Sustainable farming practices have the potential to solve much of the world's hunger problems and provide enough food to adequately feed people in current famine regions. Establishing these farming practices is an effective way to avert a famine crisis. This program sends volunteers to Zimbabwe to teach people how to begin and maintain local sustainable farms in their communities.","n","p",1,NA,NA,NA,NA,1
"98",NA,NA,NA,NA,NA,NA,1,"2025-11-30_21h50.02.918","genevsky2025_cwu","2023.2.3","Win32",119.047619,"5de9d78ebe656d10e1a26af6","692d1bf328f7b93b96e2a24d","692d1e6226754705b73adb22",NA,NA,NA,NA,NA,NA,NA,NA,NA,NA,NA,NA,54.5557,66.5523,2,11.7696,NA,NA,66.5523,68.5519,0,1,1,21,1,22,22,"stimuli/img/pos3.jpg","Famine conditions in Africa have steadily deteriorated. Families are living on less than a cup of rice each day. Many have already lost family members to starvation since the famine began and are in grave danger themselves. This program will send food to the starving in rural communities in an attempt to avoid further famine related deaths.","p","n",0,NA,NA,NA,NA,2
"99",NA,NA,NA,NA,NA,NA,1,"2025-11-30_21h50.02.918","genevsky2025_cwu","2023.2.3","Win32",119.047619,"5de9d78ebe656d10e1a26af6","692d1bf328f7b93b96e2a24d","692d1e6226754705b73adb22",NA,NA,NA,NA,NA,NA,NA,NA,NA,NA,NA,NA,68.5521,80.5489,2,11.6454,NA,NA,80.5491,82.5485,0,2,2,3,1,4,4,"stimuli/img/pos1.jpg","Famine conditions in Africa have steadily deteriorated. Families are living on less than a cup of rice each day. Many have already lost family members to starvation since the famine began and are in grave danger themselves. This program will send food to the starving in rural communities in an attempt to avoid further famine related deaths.","p","n",0,NA,NA,NA,NA,3
"100",NA,NA,NA,NA,NA,NA,1,"2025-11-30_21h50.02.918","genevsky2025_cwu","2023.2.3","Win32",119.047619,"5de9d78ebe656d10e1a26af6","692d1bf328f7b93b96e2a24d","692d1e6226754705b73adb22",NA,NA,NA,NA,NA,NA,NA,NA,NA,NA,NA,NA,82.5487,94.5486,NA,NA,4,11.925,94.5486,96.545,0,3,3,15,1,16,16,"stimuli/img/pos2.jpg","Famine conditions in Africa have steadily deteriorated. Families are living on less than a cup of rice each day. Many have already lost family members to starvation since the famine began and are in grave danger themselves. This program will send food to the starving in rural communities in an attempt to avoid further famine related deaths.","p","n",1,NA,NA,NA,NA,4
"101",NA,NA,NA,NA,NA,NA,1,"2025-11-30_21h50.02.918","genevsky2025_cwu","2023.2.3","Win32",119.047619,"5de9d78ebe656d10e1a26af6","692d1bf328f7b93b96e2a24d","692d1e6226754705b73adb22",NA,NA,NA,NA,NA,NA,NA,NA,NA,NA,NA,NA,96.5452,108.5421,2,11.6334,NA,NA,108.5421,110.5416,0,4,4,47,1,48,48,"stimuli/img/neg3.jpg","Famine conditions in Africa have steadily deteriorated. Families are living on less than a cup of rice each day. Many have already lost family members to starvation since the famine began and are in grave danger themselves. This program will send food to the starving in rural communities in an attempt to avoid further famine related deaths.","n","n",0,NA,NA,NA,NA,5
"102",NA,NA,NA,NA,NA,NA,1,"2025-11-30_21h50.02.918","genevsky2025_cwu","2023.2.3","Win32",119.047619,"5de9d78ebe656d10e1a26af6","692d1bf328f7b93b96e2a24d","692d1e6226754705b73adb22",NA,NA,NA,NA,NA,NA,NA,NA,NA,NA,NA,NA,110.5419,122.5387,2,11.3836,NA,NA,122.5387,124.5383,0,5,5,9,1,10,10,"stimuli/img/pos2.jpg","Famine conditions in Africa have steadily deteriorated. Families are living on less than a cup of rice each day. Many have already lost family members to starvation since the famine began and are in grave danger themselves. This program will send food to the starving in rural communities in an attempt to avoid further famine related deaths.","p","n",0,NA,NA,NA,NA,6
"103",NA,NA,NA,NA,NA,NA,1,"2025-11-30_21h50.02.918","genevsky2025_cwu","2023.2.3","Win32",119.047619,"5de9d78ebe656d10e1a26af6","692d1bf328f7b93b96e2a24d","692d1e6226754705b73adb22",NA,NA,NA,NA,NA,NA,NA,NA,NA,NA,NA,NA,124.5384,136.5391,2,11.4169,NA,NA,136.5392,138.5347,0,6,6,20,1,21,21,"stimuli/img/pos3.jpg","Famine conditions have affected many in Africa. Sustainable farming practices have the potential to solve much of the world's hunger problems and provide enough food to adequately feed people in current famine regions. Establishing these farming practices is an effective way to avert a famine crisis. This program sends volunteers to Zimbabwe to teach people how to begin and maintain local sustainable farms in their communities.","p","p",0,NA,NA,NA,NA,7
"104",NA,NA,NA,NA,NA,NA,1,"2025-11-30_21h50.02.918","genevsky2025_cwu","2023.2.3","Win32",119.047619,"5de9d78ebe656d10e1a26af6","692d1bf328f7b93b96e2a24d","692d1e6226754705b73adb22",NA,NA,NA,NA,NA,NA,NA,NA,NA,NA,NA,NA,138.5351,150.5318,NA,NA,4,11.9121,150.5318,152.5314,0,7,7,45,1,46,46,"stimuli/img/neg3.jpg","Famine conditions in Africa have steadily deteriorated. Families are living on less than a cup of rice each day. Many have already lost family members to starvation since the famine began and are in grave danger themselves. This program will send food to the starving in rural communities in an attempt to avoid further famine related deaths.","n","n",1,NA,NA,NA,NA,8
"105",NA,NA,NA,NA,NA,NA,1,"2025-11-30_21h50.02.918","genevsky2025_cwu","2023.2.3","Win32",119.047619,"5de9d78ebe656d10e1a26af6","692d1bf328f7b93b96e2a24d","692d1e6226754705b73adb22",NA,NA,NA,NA,NA,NA,NA,NA,NA,NA,NA,NA,152.5316,164.5285,NA,NA,4,11.9667,164.5285,166.5279,0,8,8,22,1,23,23,"stimuli/img/pos3.jpg","Famine conditions have affected many in Africa. Sustainable farming practices have the potential to solve much of the world's hunger problems and provide enough food to adequately feed people in current famine regions. Establishing these farming practices is an effective way to avert a famine crisis. This program sends volunteers to Zimbabwe to teach people how to begin and maintain local sustainable farms in their communities.","p","p",1,NA,NA,NA,NA,9
"106",NA,NA,NA,NA,NA,NA,1,"2025-11-30_21h50.02.918","genevsky2025_cwu","2023.2.3","Win32",119.047619,"5de9d78ebe656d10e1a26af6","692d1bf328f7b93b96e2a24d","692d1e6226754705b73adb22",NA,NA,NA,NA,NA,NA,NA,NA,NA,NA,NA,NA,166.5281,178.525,2,11.6677,NA,NA,178.525,180.5286,0,9,9,28,1,29,29,"stimuli/img/neg1.jpg","Famine conditions have affected many in Africa. Sustainable farming practices have the potential to solve much of the world's hunger problems and provide enough food to adequately feed people in current famine regions. Establishing these farming practices is an effective way to avert a famine crisis. This program sends volunteers to Zimbabwe to teach people how to begin and maintain local sustainable farms in their communities.","n","p",0,NA,NA,NA,NA,10
"107",NA,NA,NA,NA,NA,NA,1,"2025-11-30_21h50.02.918","genevsky2025_cwu","2023.2.3","Win32",119.047619,"5de9d78ebe656d10e1a26af6","692d1bf328f7b93b96e2a24d","692d1e6226754705b73adb22",NA,NA,NA,NA,NA,NA,NA,NA,NA,NA,NA,NA,180.5288,192.5299,NA,NA,4,11.8218,192.5299,194.5253,0,10,10,12,1,13,13,"stimuli/img/pos2.jpg","Famine conditions have affected many in Africa. Sustainable farming practices have the potential to solve much of the world's hunger problems and provide enough food to adequately feed people in current famine regions. Establishing these farming practices is an effective way to avert a famine crisis. This program sends volunteers to Zimbabwe to teach people how to begin and maintain local sustainable farms in their communities.","p","p",1,NA,NA,NA,NA,11
"108",NA,NA,NA,NA,NA,NA,1,"2025-11-30_21h50.02.918","genevsky2025_cwu","2023.2.3","Win32",119.047619,"5de9d78ebe656d10e1a26af6","692d1bf328f7b93b96e2a24d","692d1e6226754705b73adb22",NA,NA,NA,NA,NA,NA,NA,NA,NA,NA,NA,NA,194.5256,206.5222,2,11.5992,NA,NA,206.5222,208.5177,0,11,11,10,1,11,11,"stimuli/img/pos2.jpg","Famine conditions have affected many in Africa. Sustainable farming practices have the potential to solve much of the world's hunger problems and provide enough food to adequately feed people in current famine regions. Establishing these farming practices is an effective way to avert a famine crisis. This program sends volunteers to Zimbabwe to teach people how to begin and maintain local sustainable farms in their communities.","p","p",0,NA,NA,NA,NA,12
"109",NA,NA,NA,NA,NA,NA,1,"2025-11-30_21h50.02.918","genevsky2025_cwu","2023.2.3","Win32",119.047619,"5de9d78ebe656d10e1a26af6","692d1bf328f7b93b96e2a24d","692d1e6226754705b73adb22",NA,NA,NA,NA,NA,NA,NA,NA,NA,NA,NA,NA,208.5179,220.5146,2,11.2438,NA,NA,220.5147,222.5141,0,12,12,23,1,24,24,"stimuli/img/pos3.jpg","Famine conditions in Africa have steadily deteriorated. Families are living on less than a cup of rice each day. Many have already lost family members to starvation since the famine began and are in grave danger themselves. This program will send food to the starving in rural communities in an attempt to avoid further famine related deaths.","p","n",0,NA,NA,NA,NA,13
"110",NA,NA,NA,NA,NA,NA,1,"2025-11-30_21h50.02.918","genevsky2025_cwu","2023.2.3","Win32",119.047619,"5de9d78ebe656d10e1a26af6","692d1bf328f7b93b96e2a24d","692d1e6226754705b73adb22",NA,NA,NA,NA,NA,NA,NA,NA,NA,NA,NA,NA,222.5143,234.5112,2,11.4332,NA,NA,234.5112,236.5106,0,13,13,16,1,17,17,"stimuli/img/pos3.jpg","Famine conditions have affected many in Africa. Sustainable farming practices have the potential to solve much of the world's hunger problems and provide enough food to adequately feed people in current famine regions. Establishing these farming practices is an effective way to avert a famine crisis. This program sends volunteers to Zimbabwe to teach people how to begin and maintain local sustainable farms in their communities.","p","p",0,NA,NA,NA,NA,14
"111",NA,NA,NA,NA,NA,NA,1,"2025-11-30_21h50.02.918","genevsky2025_cwu","2023.2.3","Win32",119.047619,"5de9d78ebe656d10e1a26af6","692d1bf328f7b93b96e2a24d","692d1e6226754705b73adb22",NA,NA,NA,NA,NA,NA,NA,NA,NA,NA,NA,NA,236.5109,248.5079,NA,NA,NA,NA,248.508,250.5073,0,14,14,42,1,43,43,"stimuli/img/neg3.jpg","Famine conditions have affected many in Africa. Sustainable farming practices have the potential to solve much of the world's hunger problems and provide enough food to adequately feed people in current famine regions. Establishing these farming practices is an effective way to avert a famine crisis. This program sends volunteers to Zimbabwe to teach people how to begin and maintain local sustainable farms in their communities.","n","p",1,NA,NA,NA,NA,15
"112",NA,NA,NA,NA,NA,NA,1,"2025-11-30_21h50.02.918","genevsky2025_cwu","2023.2.3","Win32",119.047619,"5de9d78ebe656d10e1a26af6","692d1bf328f7b93b96e2a24d","692d1e6226754705b73adb22",NA,NA,NA,NA,NA,NA,NA,NA,NA,NA,NA,NA,250.5075,262.5045,NA,NA,4,11.5242,262.5045,264.5039,0,15,15,39,1,40,40,"stimuli/img/neg2.jpg","Famine conditions in Africa have steadily deteriorated. Families are living on less than a cup of rice each day. Many have already lost family members to starvation since the famine began and are in grave danger themselves. This program will send food to the starving in rural communities in an attempt to avoid further famine related deaths.","n","n",1,NA,NA,NA,NA,16
"113",NA,NA,NA,NA,NA,NA,1,"2025-11-30_21h50.02.918","genevsky2025_cwu","2023.2.3","Win32",119.047619,"5de9d78ebe656d10e1a26af6","692d1bf328f7b93b96e2a24d","692d1e6226754705b73adb22",NA,NA,NA,NA,NA,NA,NA,NA,NA,NA,NA,NA,264.504,276.5009,NA,NA,4,11.0988,276.5009,278.5006,0,16,16,14,1,15,15,"stimuli/img/pos2.jpg","Famine conditions have affected many in Africa. Sustainable farming practices have the potential to solve much of the world's hunger problems and provide enough food to adequately feed people in current famine regions. Establishing these farming practices is an effective way to avert a famine crisis. This program sends volunteers to Zimbabwe to teach people how to begin and maintain local sustainable farms in their communities.","p","p",1,NA,NA,NA,NA,17
"114",NA,NA,NA,NA,NA,NA,1,"2025-11-30_21h50.02.918","genevsky2025_cwu","2023.2.3","Win32",119.047619,"5de9d78ebe656d10e1a26af6","692d1bf328f7b93b96e2a24d","692d1e6226754705b73adb22",NA,NA,NA,NA,NA,NA,NA,NA,NA,NA,NA,NA,278.5009,290.4975,NA,NA,4,11.4263,290.4975,292.4971,0,17,17,18,1,19,19,"stimuli/img/pos3.jpg","Famine conditions have affected many in Africa. Sustainable farming practices have the potential to solve much of the world's hunger problems and provide enough food to adequately feed people in current famine regions. Establishing these farming practices is an effective way to avert a famine crisis. This program sends volunteers to Zimbabwe to teach people how to begin and maintain local sustainable farms in their communities.","p","p",1,NA,NA,NA,NA,18
"115",NA,NA,NA,NA,NA,NA,1,"2025-11-30_21h50.02.918","genevsky2025_cwu","2023.2.3","Win32",119.047619,"5de9d78ebe656d10e1a26af6","692d1bf328f7b93b96e2a24d","692d1e6226754705b73adb22",NA,NA,NA,NA,NA,NA,NA,NA,NA,NA,NA,NA,292.4973,304.4942,NA,NA,4,11.5257,304.4944,306.4936,0,18,18,36,1,37,37,"stimuli/img/neg2.jpg","Famine conditions have affected many in Africa. Sustainable farming practices have the potential to solve much of the world's hunger problems and provide enough food to adequately feed people in current famine regions. Establishing these farming practices is an effective way to avert a famine crisis. This program sends volunteers to Zimbabwe to teach people how to begin and maintain local sustainable farms in their communities.","n","p",1,NA,NA,NA,NA,19
"116",NA,NA,NA,NA,NA,NA,1,"2025-11-30_21h50.02.918","genevsky2025_cwu","2023.2.3","Win32",119.047619,"5de9d78ebe656d10e1a26af6","692d1bf328f7b93b96e2a24d","692d1e6226754705b73adb22",NA,NA,NA,NA,NA,NA,NA,NA,NA,NA,NA,NA,306.4938,318.4907,2,11.5349,NA,NA,318.4907,320.4938,0,19,19,8,1,9,9,"stimuli/img/pos2.jpg","Famine conditions have affected many in Africa. Sustainable farming practices have the potential to solve much of the world's hunger problems and provide enough food to adequately feed people in current famine regions. Establishing these farming practices is an effective way to avert a famine crisis. This program sends volunteers to Zimbabwe to teach people how to begin and maintain local sustainable farms in their communities.","p","p",0,NA,NA,NA,NA,20
"117",NA,NA,NA,NA,NA,NA,1,"2025-11-30_21h50.02.918","genevsky2025_cwu","2023.2.3","Win32",119.047619,"5de9d78ebe656d10e1a26af6","692d1bf328f7b93b96e2a24d","692d1e6226754705b73adb22",NA,NA,NA,NA,NA,NA,NA,NA,NA,NA,NA,NA,320.494,332.4909,2,11.4825,NA,NA,332.4909,334.4868,0,20,20,26,1,27,27,"stimuli/img/neg1.jpg","Famine conditions have affected many in Africa. Sustainable farming practices have the potential to solve much of the world's hunger problems and provide enough food to adequately feed people in current famine regions. Establishing these farming practices is an effective way to avert a famine crisis. This program sends volunteers to Zimbabwe to teach people how to begin and maintain local sustainable farms in their communities.","n","p",0,NA,NA,NA,NA,21
"118",NA,NA,NA,NA,NA,NA,1,"2025-11-30_21h50.02.918","genevsky2025_cwu","2023.2.3","Win32",119.047619,"5de9d78ebe656d10e1a26af6","692d1bf328f7b93b96e2a24d","692d1e6226754705b73adb22",NA,NA,NA,NA,NA,NA,NA,NA,NA,NA,NA,NA,334.4872,346.4875,NA,NA,NA,NA,346.4875,348.4834,0,21,21,44,1,45,45,"stimuli/img/neg3.jpg","Famine conditions have affected many in Africa. Sustainable farming practices have the potential to solve much of the world's hunger problems and provide enough food to adequately feed people in current famine regions. Establishing these farming practices is an effective way to avert a famine crisis. This program sends volunteers to Zimbabwe to teach people how to begin and maintain local sustainable farms in their communities.","n","p",1,NA,NA,NA,NA,22
"119",NA,NA,NA,NA,NA,NA,1,"2025-11-30_21h50.02.918","genevsky2025_cwu","2023.2.3","Win32",119.047619,"5de9d78ebe656d10e1a26af6","692d1bf328f7b93b96e2a24d","692d1e6226754705b73adb22",NA,NA,NA,NA,NA,NA,NA,NA,NA,NA,NA,NA,348.4836,360.4803,NA,NA,4,11.6695,360.4803,362.4798,0,22,22,7,1,8,8,"stimuli/img/pos1.jpg","Famine conditions in Africa have steadily deteriorated. Families are living on less than a cup of rice each day. Many have already lost family members to starvation since the famine began and are in grave danger themselves. This program will send food to the starving in rural communities in an attempt to avoid further famine related deaths.","p","n",1,NA,NA,NA,NA,23
"120",NA,NA,NA,NA,NA,NA,1,"2025-11-30_21h50.02.918","genevsky2025_cwu","2023.2.3","Win32",119.047619,"5de9d78ebe656d10e1a26af6","692d1bf328f7b93b96e2a24d","692d1e6226754705b73adb22",NA,NA,NA,NA,NA,NA,NA,NA,NA,NA,NA,NA,362.4801,374.4804,2,11.6127,NA,NA,374.4805,376.4766,0,23,23,37,1,38,38,"stimuli/img/neg2.jpg","Famine conditions in Africa have steadily deteriorated. Families are living on less than a cup of rice each day. Many have already lost family members to starvation since the famine began and are in grave danger themselves. This program will send food to the starving in rural communities in an attempt to avoid further famine related deaths.","n","n",0,NA,NA,NA,NA,24
"121",NA,NA,NA,NA,NA,NA,1,"2025-11-30_21h50.02.918","genevsky2025_cwu","2023.2.3","Win32",119.047619,"5de9d78ebe656d10e1a26af6","692d1bf328f7b93b96e2a24d","692d1e6226754705b73adb22",NA,NA,NA,NA,NA,NA,NA,NA,NA,NA,NA,NA,376.4767,388.4735,NA,NA,4,11.625,388.4735,390.4684,0,24,24,17,1,18,18,"stimuli/img/pos3.jpg","Famine conditions in Africa have steadily deteriorated. Families are living on less than a cup of rice each day. Many have already lost family members to starvation since the famine began and are in grave danger themselves. This program will send food to the starving in rural communities in an attempt to avoid further famine related deaths.","p","n",1,NA,NA,NA,NA,25
"122",NA,NA,NA,NA,NA,NA,1,"2025-11-30_21h50.02.918","genevsky2025_cwu","2023.2.3","Win32",119.047619,"5de9d78ebe656d10e1a26af6","692d1bf328f7b93b96e2a24d","692d1e6226754705b73adb22",NA,NA,NA,NA,NA,NA,NA,NA,NA,NA,NA,NA,390.4687,402.4702,2,11.8552,NA,NA,402.4703,404.4696,0,25,25,25,1,26,26,"stimuli/img/neg1.jpg","Famine conditions in Africa have steadily deteriorated. Families are living on less than a cup of rice each day. Many have already lost family members to starvation since the famine began and are in grave danger themselves. This program will send food to the starving in rural communities in an attempt to avoid further famine related deaths.","n","n",0,NA,NA,NA,NA,26
"123",NA,NA,NA,NA,NA,NA,1,"2025-11-30_21h50.02.918","genevsky2025_cwu","2023.2.3","Win32",119.047619,"5de9d78ebe656d10e1a26af6","692d1bf328f7b93b96e2a24d","692d1e6226754705b73adb22",NA,NA,NA,NA,NA,NA,NA,NA,NA,NA,NA,NA,404.4698,416.4667,NA,NA,NA,NA,416.4667,418.466,0,26,26,1,1,2,2,"stimuli/img/pos1.jpg","Famine conditions in Africa have steadily deteriorated. Families are living on less than a cup of rice each day. Many have already lost family members to starvation since the famine began and are in grave danger themselves. This program will send food to the starving in rural communities in an attempt to avoid further famine related deaths.","p","n",0,NA,NA,NA,NA,27
"124",NA,NA,NA,NA,NA,NA,1,"2025-11-30_21h50.02.918","genevsky2025_cwu","2023.2.3","Win32",119.047619,"5de9d78ebe656d10e1a26af6","692d1bf328f7b93b96e2a24d","692d1e6226754705b73adb22",NA,NA,NA,NA,NA,NA,NA,NA,NA,NA,NA,NA,418.4663,430.4632,2,11.4849,NA,NA,430.4633,432.4626,0,27,27,41,1,42,42,"stimuli/img/neg3.jpg","Famine conditions in Africa have steadily deteriorated. Families are living on less than a cup of rice each day. Many have already lost family members to starvation since the famine began and are in grave danger themselves. This program will send food to the starving in rural communities in an attempt to avoid further famine related deaths.","n","n",0,NA,NA,NA,NA,28
"125",NA,NA,NA,NA,NA,NA,1,"2025-11-30_21h50.02.918","genevsky2025_cwu","2023.2.3","Win32",119.047619,"5de9d78ebe656d10e1a26af6","692d1bf328f7b93b96e2a24d","692d1e6226754705b73adb22",NA,NA,NA,NA,NA,NA,NA,NA,NA,NA,NA,NA,432.463,444.4597,NA,NA,NA,NA,444.4598,446.4593,0,28,28,32,1,33,33,"stimuli/img/neg2.jpg","Famine conditions have affected many in Africa. Sustainable farming practices have the potential to solve much of the world's hunger problems and provide enough food to adequately feed people in current famine regions. Establishing these farming practices is an effective way to avert a famine crisis. This program sends volunteers to Zimbabwe to teach people how to begin and maintain local sustainable farms in their communities.","n","p",1,NA,NA,NA,NA,29
"126",NA,NA,NA,NA,NA,NA,1,"2025-11-30_21h50.02.918","genevsky2025_cwu","2023.2.3","Win32",119.047619,"5de9d78ebe656d10e1a26af6","692d1bf328f7b93b96e2a24d","692d1e6226754705b73adb22",NA,NA,NA,NA,NA,NA,NA,NA,NA,NA,NA,NA,446.4596,458.4563,NA,NA,NA,NA,458.4563,460.4559,0,29,29,35,1,36,36,"stimuli/img/neg2.jpg","Famine conditions in Africa have steadily deteriorated. Families are living on less than a cup of rice each day. Many have already lost family members to starvation since the famine began and are in grave danger themselves. This program will send food to the starving in rural communities in an attempt to avoid further famine related deaths.","n","n",0,NA,NA,NA,NA,30
"127",NA,NA,NA,NA,NA,NA,1,"2025-11-30_21h50.02.918","genevsky2025_cwu","2023.2.3","Win32",119.047619,"5de9d78ebe656d10e1a26af6","692d1bf328f7b93b96e2a24d","692d1e6226754705b73adb22",NA,NA,NA,NA,NA,NA,NA,NA,NA,NA,NA,NA,460.4561,472.4529,NA,NA,NA,NA,472.453,474.4525,0,30,30,4,1,5,5,"stimuli/img/pos1.jpg","Famine conditions have affected many in Africa. Sustainable farming practices have the potential to solve much of the world's hunger problems and provide enough food to adequately feed people in current famine regions. Establishing these farming practices is an effective way to avert a famine crisis. This program sends volunteers to Zimbabwe to teach people how to begin and maintain local sustainable farms in their communities.","p","p",1,NA,NA,NA,NA,31
"128",NA,NA,NA,NA,NA,NA,1,"2025-11-30_21h50.02.918","genevsky2025_cwu","2023.2.3","Win32",119.047619,"5de9d78ebe656d10e1a26af6","692d1bf328f7b93b96e2a24d","692d1e6226754705b73adb22",NA,NA,NA,NA,NA,NA,NA,NA,NA,NA,NA,NA,474.4528,486.4495,NA,NA,4,11.3504,486.4495,488.4491,0,31,31,19,1,20,20,"stimuli/img/pos3.jpg","Famine conditions in Africa have steadily deteriorated. Families are living on less than a cup of rice each day. Many have already lost family members to starvation since the famine began and are in grave danger themselves. This program will send food to the starving in rural communities in an attempt to avoid further famine related deaths.","p","n",1,NA,NA,NA,NA,32
"129",NA,NA,NA,NA,NA,NA,1,"2025-11-30_21h50.02.918","genevsky2025_cwu","2023.2.3","Win32",119.047619,"5de9d78ebe656d10e1a26af6","692d1bf328f7b93b96e2a24d","692d1e6226754705b73adb22",NA,NA,NA,NA,NA,NA,NA,NA,NA,NA,NA,NA,488.4496,500.4461,NA,NA,4,11.5294,500.4461,502.4455,0,32,32,27,1,28,28,"stimuli/img/neg1.jpg","Famine conditions in Africa have steadily deteriorated. Families are living on less than a cup of rice each day. Many have already lost family members to starvation since the famine began and are in grave danger themselves. This program will send food to the starving in rural communities in an attempt to avoid further famine related deaths.","n","n",1,NA,NA,NA,NA,33
"130",NA,NA,NA,NA,NA,NA,1,"2025-11-30_21h50.02.918","genevsky2025_cwu","2023.2.3","Win32",119.047619,"5de9d78ebe656d10e1a26af6","692d1bf328f7b93b96e2a24d","692d1e6226754705b73adb22",NA,NA,NA,NA,NA,NA,NA,NA,NA,NA,NA,NA,502.4458,514.4427,NA,NA,NA,NA,514.4427,516.4421,0,33,33,13,1,14,14,"stimuli/img/pos2.jpg","Famine conditions in Africa have steadily deteriorated. Families are living on less than a cup of rice each day. Many have already lost family members to starvation since the famine began and are in grave danger themselves. This program will send food to the starving in rural communities in an attempt to avoid further famine related deaths.","p","n",0,NA,NA,NA,NA,34
"131",NA,NA,NA,NA,NA,NA,1,"2025-11-30_21h50.02.918","genevsky2025_cwu","2023.2.3","Win32",119.047619,"5de9d78ebe656d10e1a26af6","692d1bf328f7b93b96e2a24d","692d1e6226754705b73adb22",NA,NA,NA,NA,NA,NA,NA,NA,NA,NA,NA,NA,516.4424,528.4392,NA,NA,4,11.6361,528.4392,530.4387,0,34,34,11,1,12,12,"stimuli/img/pos2.jpg","Famine conditions in Africa have steadily deteriorated. Families are living on less than a cup of rice each day. Many have already lost family members to starvation since the famine began and are in grave danger themselves. This program will send food to the starving in rural communities in an attempt to avoid further famine related deaths.","p","n",1,NA,NA,NA,NA,35
"132",NA,NA,NA,NA,NA,NA,1,"2025-11-30_21h50.02.918","genevsky2025_cwu","2023.2.3","Win32",119.047619,"5de9d78ebe656d10e1a26af6","692d1bf328f7b93b96e2a24d","692d1e6226754705b73adb22",NA,NA,NA,NA,NA,NA,NA,NA,NA,NA,NA,NA,530.439,542.4358,2,11.7529,NA,NA,542.4358,544.4352,0,35,35,33,1,34,34,"stimuli/img/neg2.jpg","Famine conditions in Africa have steadily deteriorated. Families are living on less than a cup of rice each day. Many have already lost family members to starvation since the famine began and are in grave danger themselves. This program will send food to the starving in rural communities in an attempt to avoid further famine related deaths.","n","n",0,NA,NA,NA,NA,36
"133",NA,NA,NA,NA,NA,NA,1,"2025-11-30_21h50.02.918","genevsky2025_cwu","2023.2.3","Win32",119.047619,"5de9d78ebe656d10e1a26af6","692d1bf328f7b93b96e2a24d","692d1e6226754705b73adb22",NA,NA,NA,NA,NA,NA,NA,NA,NA,NA,NA,NA,544.4353,556.4323,NA,NA,NA,NA,556.4324,558.4319,0,36,36,38,1,39,39,"stimuli/img/neg2.jpg","Famine conditions have affected many in Africa. Sustainable farming practices have the potential to solve much of the world's hunger problems and provide enough food to adequately feed people in current famine regions. Establishing these farming practices is an effective way to avert a famine crisis. This program sends volunteers to Zimbabwe to teach people how to begin and maintain local sustainable farms in their communities.","n","p",1,NA,NA,NA,NA,37
"134",NA,NA,NA,NA,NA,NA,1,"2025-11-30_21h50.02.918","genevsky2025_cwu","2023.2.3","Win32",119.047619,"5de9d78ebe656d10e1a26af6","692d1bf328f7b93b96e2a24d","692d1e6226754705b73adb22",NA,NA,NA,NA,NA,NA,NA,NA,NA,NA,NA,NA,558.4322,570.429,NA,NA,NA,NA,570.429,572.4284,0,37,37,24,1,25,25,"stimuli/img/neg1.jpg","Famine conditions have affected many in Africa. Sustainable farming practices have the potential to solve much of the world's hunger problems and provide enough food to adequately feed people in current famine regions. Establishing these farming practices is an effective way to avert a famine crisis. This program sends volunteers to Zimbabwe to teach people how to begin and maintain local sustainable farms in their communities.","n","p",1,NA,NA,NA,NA,38
"135",NA,NA,NA,NA,NA,NA,1,"2025-11-30_21h50.02.918","genevsky2025_cwu","2023.2.3","Win32",119.047619,"5de9d78ebe656d10e1a26af6","692d1bf328f7b93b96e2a24d","692d1e6226754705b73adb22",NA,NA,NA,NA,NA,NA,NA,NA,NA,NA,NA,NA,572.4286,584.4255,2,11.8502,NA,NA,584.4255,586.425,0,38,38,30,1,31,31,"stimuli/img/neg1.jpg","Famine conditions have affected many in Africa. Sustainable farming practices have the potential to solve much of the world's hunger problems and provide enough food to adequately feed people in current famine regions. Establishing these farming practices is an effective way to avert a famine crisis. This program sends volunteers to Zimbabwe to teach people how to begin and maintain local sustainable farms in their communities.","n","p",0,NA,NA,NA,NA,39
"136",NA,NA,NA,NA,NA,NA,1,"2025-11-30_21h50.02.918","genevsky2025_cwu","2023.2.3","Win32",119.047619,"5de9d78ebe656d10e1a26af6","692d1bf328f7b93b96e2a24d","692d1e6226754705b73adb22",NA,NA,NA,NA,NA,NA,NA,NA,NA,NA,NA,NA,586.4251,598.422,NA,NA,4,11.8583,598.4221,600.4216,0,39,39,31,1,32,32,"stimuli/img/neg1.jpg","Famine conditions in Africa have steadily deteriorated. Families are living on less than a cup of rice each day. Many have already lost family members to starvation since the famine began and are in grave danger themselves. This program will send food to the starving in rural communities in an attempt to avoid further famine related deaths.","n","n",1,NA,NA,NA,NA,40
